time,seconds_elapsed,z,y,x
1772660815042645800,0.065645751953125,-1.2338035440534352,0.7525403687894344,-0.907617387124151
1772660815052684800,0.075684814453125,-1.2334452321350573,1.1809405533939599,-1.1846885077506304
1772660815062722800,0.085722900390625,-1.4938316138118504,1.5272019684940576,-0.9472006249718368
1772660815072760800,0.0957607421875,-1.7197317885190246,1.0312976889371872,-0.11300550733525305
1772660815082798600,0.105798583984375,-1.594835242784023,0.13403788356781005,0.6140330847226083
1772660815092838000,0.115837890625,-0.849676216417551,-0.16302841573059557,0.16874270172417163
1772660815102875600,0.125875732421875,-0.14602292039394377,-0.4343412650913,-0.18923180139288306
1772660815112914000,0.135913818359375,-0.24835341405570505,-0.1737982315480709,-0.3546053189449012
1772660815122951700,0.14595166015625,-1.071100707015395,0.3551560846954584,-0.6716053490515798
1772660815132990700,0.15599072265625,-1.644864471322298,0.9484563241213559,-0.7626818235754966
1772660815143028700,0.16602880859375,-1.5953560517877339,1.2334656904011965,-0.5856926870316267
1772660815153066800,0.176066650390625,-1.2154688459396361,1.2457856582701206,-0.01787646948490292
1772660815163104800,0.186104736328125,-0.9041144935697316,0.932376126936078,0.19265406745914368
1772660815173143800,0.196143798828125,-0.790484607258439,0.5538794986635446,0.14392156420052052
1772660815183181800,0.206181884765625,-0.6340227104365825,0.3910182561933994,-0.10302808400448411
1772660815193219800,0.2162197265625,-0.532087938094139,0.41392216191887854,-0.3834657949872315
1772660815203257900,0.2262578125,-0.5710656112641096,0.547493012496829,-0.3888686404114589
1772660815213297000,0.236296875,-0.3538087617397308,0.7859984017550945,-0.5542134798582643
1772660815223335000,0.2463349609375,-0.36690497467815875,1.0657365496337414,-1.0301451579011975
1772660815233373000,0.256373046875,-0.8328969310522079,1.525273046258092,-1.5200111802071332
1772660815243411000,0.266410888671875,-1.3185352526605127,2.1070418378442524,-1.8985548624917863
1772660815253449700,0.27644970703125,-1.2343582553267478,2.141797509405017,-2.1027932404890657
1772660815263487700,0.28648779296875,-1.2410726582735776,1.283754446658492,-1.4206192242152988
1772660815273525800,0.29652587890625,-0.7844207771748304,0.2525701549679041,-0.5446789779894053
1772660815283563500,0.3065634765625,-0.01323708271384239,0.0928226606041193,-0.3405314566133544
1772660815293602800,0.316602783203125,0.19650982957184313,0.2018745714753866,-0.2647070944201201
1772660815303640800,0.326640869140625,-0.1216463117673993,0.062141691136360165,-0.12408588693924248
1772660815313678800,0.336678955078125,-0.11310995409041642,0.025766309419274328,0.05738382908478379
1772660815323716600,0.346716552734375,-0.05318623126447201,0.21156828249394893,0.21996172456890342
1772660815333755600,0.356755615234375,0.026484102299809454,0.12443769605159759,0.08278671201914549
1772660815343793700,0.366793701171875,-0.018997253675758836,0.3703577454805374,0.25162352176755665
1772660815353831700,0.376831787109375,0.0521384757772088,0.4371083917170763,0.48483913405463097
1772660815363869700,0.38686962890625,0.2743620077982545,0.1922153472483158,0.826361684064567
1772660815373908700,0.39690869140625,0.4243263592943549,-0.1032055229306221,1.7626659442298114
1772660815383946800,0.40694677734375,0.1614744642868638,-0.5154775795549154,2.604525787808001
1772660815393984800,0.41698486328125,0.12793679021373391,-1.1016437293171881,2.3727467841953036
1772660815404022800,0.427022705078125,0.6672247228145599,-0.8951648789167403,1.8010685939908027
1772660815414061800,0.437061767578125,0.4542151554711163,0.018294950625300406,1.124160681551695
1772660815424099600,0.447099609375,0.27987653343603014,0.8266957383245229,0.2317695051319897
1772660815434137900,0.457137939453125,0.4378268421847373,1.5090607471257447,-0.4763798602018505
1772660815444175600,0.467175537109375,0.0688327132076025,1.7918886777132748,-0.7408113525509834
1772660815454215000,0.47721484375,-0.20406767933918163,1.8719933110415934,-0.2841339716847986
1772660815464252700,0.487252685546875,0.11857377245426177,1.6692600769102572,0.5170997739292681
1772660815474290700,0.497290771484375,1.169216797852516,1.2418021415919065,1.1222560169741511
1772660815484328700,0.50732861328125,2.1237609174549577,0.8302525540232658,1.1402446781292557
1772660815494367700,0.51736767578125,3.0463574086546896,0.5618009393125772,1.9687078645177185
1772660815504405800,0.52740576171875,3.563791382974386,0.11931553073227405,3.201827371829748
1772660815514443500,0.537443603515625,3.1866660430550575,-0.3772112646371126,2.7082728702694174
1772660815524481800,0.547481689453125,2.8813679219841957,-0.07032324402630329,0.7794337825424968
1772660815534520600,0.5575205078125,2.120472251173109,0.8868459633827209,-1.540692003055662
1772660815544558800,0.567558837890625,0.5124772286951541,1.7159312271922826,-2.7632641051292417
1772660815554596600,0.5775966796875,-0.9625811494551598,2.166773545229435,-3.551822128239274
1772660815564635000,0.587634765625,-1.6454278042934833,2.3300965599924326,-3.678693773439526
1772660815574673700,0.597673583984375,-0.6695185328401625,2.3089906435996292,-2.5413866100668905
1772660815584711700,0.607711669921875,0.8199911261193453,1.9065958378672598,-0.7737417083807289
1772660815594749700,0.617749755859375,0.7250770461939274,1.4221370814323424,1.757727172653377
1772660815604787700,0.62778759765625,-0.6184112998068332,0.8530898242533207,4.7503474381625646
1772660815614826800,0.63782666015625,-2.9866531737983224,-0.431045730677247,5.65173338355124
1772660815624864800,0.64786474609375,-2.1875170580506325,-2.886682979527116,2.313697359985858
1772660815634902800,0.65790283203125,-0.3254103502511978,-4.053095241352915,-0.7374510823376477
1772660815644940500,0.6679404296875,4.885611064133048,-3.2933237522661685,-1.7473234136693179
1772660815654979600,0.6779794921875,9.27475027795434,-0.902040025383234,-3.9197710590124126
1772660815665017900,0.688017822265625,3.2512384684696793,1.1962456745535135,-3.72121861769706
1772660815675055600,0.6980556640625,-2.9237559881195425,1.9370470902323722,-1.3183562428317963
1772660815685093600,0.70809375,-3.2664752005681392,1.2277063962221144,0.6887175196330994
1772660815695132700,0.718132568359375,-0.27068711867779494,-0.510341970232129,0.15591726855114102
1772660815705170700,0.728170654296875,1.1604302648067473,-1.566627385431528,-0.5213854884244501
1772660815715208700,0.738208740234375,1.0023068645134567,-1.4325211128026245,-0.0021023060414940118
1772660815725246700,0.748246826171875,1.0916630180507898,-1.0334925686329604,0.27540764439366755
1772660815735285800,0.75828564453125,0.7630211385324597,-0.48709904181063174,-0.36936720007322726
1772660815745323800,0.76832373046875,0.13795564153343437,0.3637053018540144,-0.8930744094435125
1772660815755361800,0.77836181640625,-0.05156769015192985,1.3384317932635545,-0.8020641320236027
1772660815765399800,0.78839990234375,0.25581805084794756,2.3386902008146047,-0.44988092565909027
1772660815775438800,0.79843896484375,1.1510039725527166,3.018426030156016,0.4131196864295751
1772660815785476600,0.8084765625,1.358666187518835,2.748420171740651,1.6786653263762592
1772660815795515000,0.818514892578125,-0.035800942829996345,1.1228186192929743,2.811582730357349
1772660815805552600,0.828552734375,-2.549607325923443,-1.1174492012143133,2.397227729979157
1772660815815592000,0.838592041015625,-3.888886091405153,-2.1353929030597207,0.4071173042096197
1772660815825629700,0.848629638671875,-2.9268519083082674,-1.908587303945422,-1.0629099479056894
1772660815835667700,0.858667724609375,-0.8274912726163863,-1.46654730104506,-0.800020862692967
1772660815845705700,0.868705810546875,0.8766028017878532,-0.8542623751640319,-0.0907475348304957
1772660815855744800,0.878744873046875,1.3169792553901671,-0.0821428611576557,-0.01793824614211917
1772660815865782800,0.88878271484375,0.816594615548849,0.5842021562129259,-0.19514109850190578
1772660815875820500,0.898820556640625,-0.03285714446306229,0.8663093713104725,-0.0926673969771713
1772660815885858800,0.90885888671875,-0.904317322665453,0.7462590965628624,-0.05749079659059644
1772660815895897600,0.918897705078125,-1.5316871510840953,0.40019291177392,0.08414638299979268
1772660815905936000,0.928935791015625,-1.2073344931922851,-0.1146340949177742,0.6074813249915838
1772660815915973600,0.9389736328125,-0.3333773836076259,-0.5628536632359028,0.9666741178572177
1772660815926012000,0.949011962890625,0.6772105486474931,-0.9105904115855693,1.761887068811804
1772660815936050700,0.95905078125,0.9416672485031187,-1.0232575903445482,2.7238164763599633
1772660815946088700,0.969088623046875,0.4843127720929682,-0.9230132553070783,2.701258023071289
1772660815956126700,0.979126708984375,-0.038985125824064014,-0.5837140804350376,2.076812996058166
1772660815966164700,0.989164794921875,-0.17613617297634482,-0.17946517126858233,1.4583669171988962
1772660815976203800,0.999203857421875,-0.005667670372873544,0.20126666871011256,1.0815492549892514
1772660815986241800,1.00924169921875,0.03839709680303931,0.38806583612859247,0.7384273069586604
1772660815996279800,1.01927978515625,0.023902122982591388,0.3099643593162298,0.4876000501353293
1772660816006317600,1.029317626953125,0.3740820267006755,0.17170973483622073,0.35572957373447717
1772660816016356600,1.039356689453125,0.5812288394905626,0.08052958074212074,0.18546411942243574
1772660816026395000,1.049394775390625,0.5552899499833583,0.011790391036868094,0.11231127799339592
1772660816036432600,1.0594326171875,0.4734263441585004,-0.14658639949560165,0.2313542753946036
1772660816046470700,1.069470703125,0.2711000833928585,-0.3936591260910034,0.24196707401946185
1772660816056509700,1.079509765625,0.2414683307170868,-0.41142800701558585,0.17920191722251474
1772660816066547700,1.089547607421875,0.11675810133442283,-0.21431670441925524,-0.11161489322707056
1772660816076585700,1.099585693359375,-0.0914873203471303,-0.07262918288111686,-0.4095105560217052
1772660816086623700,1.109623779296875,-0.17008549463525413,-0.022961773392558095,-0.4296061993934214
1772660816096662800,1.119662841796875,0.12158639827370643,-0.03669979136586189,-0.2382240150336176
1772660816106700500,1.129700439453125,0.6257435423910618,0.0878115544438362,-0.06677826489582657
1772660816116738800,1.13973876953125,0.7876806557536125,0.216118785405159,-0.06553659427165985
1772660816126776600,1.149776611328125,0.3982781641937792,0.2850292400240898,0.002034063110873103
1772660816136815900,1.15981591796875,0.10063932570442556,0.3757248254716396,0.11331797081790863
1772660816146853600,1.169853515625,-0.14925883357524872,0.3814987326979637,0.22930720667168497
1772660816156892000,1.179891845703125,-0.14550839500054716,0.4667857371002435,0.17031630771644413
1772660816166929700,1.1899296875,0.17420374360904098,0.5649152719408274,-0.12818082810267806
1772660816176968700,1.19996875,0.33274273896589873,0.6085229429990053,-0.44069151090085507
1772660816187006700,1.2100068359375,0.1883950583077967,0.855457722428441,-0.7461853006742895
1772660816197044700,1.220044677734375,0.009180500799417495,1.2011001288473606,-0.9783841371342539
1772660816207082800,1.230082763671875,0.1212263327896595,1.1148282050609588,-0.9094882955625653
1772660816217121800,1.240121826171875,0.431067211856693,0.5542915865957737,-0.6641438540644944
1772660816227159800,1.250159912109375,0.27346739704608913,-0.057171501508355135,-0.4584831881791353
1772660816237197600,1.260197509765625,-0.020307605621963737,-0.4174269551694393,-0.4464103269390762
1772660816247235600,1.270235595703125,-0.15066285515427588,-0.9287252032130956,-0.46988867155164477
1772660816257274600,1.280274658203125,-0.20775778429508207,-1.4080547800660133,-0.3717014882396906
1772660816267312600,1.290312744140625,-0.3264237650774419,-1.257715165516734,-0.31793080815076824
1772660816277350700,1.3003505859375,-0.21455226674079894,-0.7749976997911929,-0.18863705037012696
1772660816287388700,1.310388671875,-0.20412337331548333,-0.3938946884125471,0.10699015603587031
1772660816297427700,1.320427734375,-0.33490181669592856,-0.0866571237117052,0.5130302594680339
1772660816307465500,1.330465576171875,-0.5607015997685492,0.2861667196214199,0.86838866180256
1772660816317503500,1.34050341796875,-0.7031200659297406,0.5133125104755163,1.087252288936451
1772660816327541500,1.35054150390625,-0.5187468835491686,0.5500958884716034,1.1728115344088523
1772660816337580500,1.36058056640625,-0.04042202675938606,0.6581529430866241,1.0294470926344395
1772660816347618600,1.37061865234375,0.3528898933291435,0.6780313635110855,0.7750034719448536
1772660816357656600,1.380656494140625,0.4516894363857806,0.468668482106924,0.3945436538405716
1772660816367694600,1.390694580078125,0.4965596747256815,0.2042407160848379,0.0634110534850508
1772660816377733400,1.4007333984375,0.5000267663143575,0.15789280640780926,-0.10532280734553932
1772660816387771600,1.410771728515625,0.1857587184548378,0.34002515105903147,-0.10932663615942001
1772660816397809400,1.420809326171875,-0.2775214947424829,0.38109190546274185,-0.02676620717681944
1772660816407847700,1.43084765625,-0.6307691885333507,0.22382746008634566,0.04577785470411181
1772660816417886500,1.440886474609375,-0.5654419261634349,0.038059973803162575,-0.10201572862416505
1772660816427924700,1.4509248046875,-0.4566167367201298,-0.014748071798682212,-0.3220888046130538
1772660816437962500,1.46096240234375,-0.3976409622687846,-0.12776713273525236,-0.6421415733538568
1772660816448000800,1.471000732421875,-0.26125783074907954,-0.20191314992010592,-0.7402302647273987
1772660816458039600,1.48103955078125,-0.06498707063011824,-0.17419804452061652,-0.6091252197410911
1772660816468077600,1.49107763671875,-0.00928564167432487,-0.04015548477768898,-0.29585882320478557
1772660816478115600,1.501115478515625,-0.03567095977477729,0.0315799641340971,-0.11356200870685279
1772660816488153300,1.5111533203125,-0.1149042170960456,-0.014435937109589576,-0.11351751197800039
1772660816498192600,1.521192626953125,-0.34246552994847296,-0.14684417364895344,-0.2820913599412888
1772660816508230400,1.53123046875,-0.14989019028134642,-0.22815058398246763,-0.4867970631893724
1772660816518268700,1.5412685546875,0.39260231051445005,-0.2327133618533611,-0.5637339532017708
1772660816528306400,1.551306396484375,0.3860918326418847,-0.17463292880654335,-0.45523500003814693
1772660816538345500,1.561345458984375,-0.28586167226023973,-0.034842765322327614,-0.29655418505780395
1772660816548383500,1.571383544921875,-0.6728408091306686,0.09089256932437419,-0.16214578767716883
1772660816558421500,1.58142138671875,-0.4800386749703437,0.05456687196791172,-0.17955555296577513
1772660816568459500,1.59145947265625,0.1153355211853981,-0.10672609827220439,-0.3368235054735094
1772660816578498600,1.60149853515625,0.5826549998361616,-0.1556423971325159,-0.5895571073748171
1772660816588536600,1.61153662109375,0.694373426502943,-0.09791910696029663,-0.8011258282601833
1772660816598574600,1.62157470703125,0.6522258911252021,-0.02372223637104034,-0.8690988558985292
1772660816608612600,1.631612548828125,0.5730254766276106,0.09410159449875354,-0.8466969814110546
1772660816618651600,1.641651611328125,0.3419546212842688,0.20278701014518738,-0.7810433366309851
1772660816628689400,1.651689453125,-0.11507599346637726,0.22508885832428932,-0.7002521092779934
1772660816638727700,1.661727783203125,-0.5031985647508874,0.14806816248595714,-0.6333281523011625
1772660816648765400,1.671765380859375,-0.5894225212097167,0.0915413886219263,-0.5046805834695697
1772660816658804700,1.6818046875,-0.5256313458332792,0.08175298505723476,-0.2545012691609561
1772660816668842500,1.691842529296875,-0.31243279525637624,-0.03896306012272834,0.02162183002568781
1772660816678880500,1.701880615234375,-0.07003273664712906,-0.21041618984937666,0.1632744263809174
1772660816688918500,1.71191845703125,0.1442564952433109,-0.28955110136270523,0.31486791344881054
1772660816698957600,1.72195751953125,0.5134686508852988,-0.32644553851783276,0.42651422472745176
1772660816708995600,1.73199560546875,0.7272516868192702,-0.3412333578050136,0.3519753357674926
1772660816719033600,1.74203369140625,0.46434532167818393,-0.22615853338241576,0.14663491481244564
1772660816729071600,1.752071533203125,0.05697101050019264,-0.02551438048481941,-0.029088585709780453
1772660816739110400,1.7621103515625,-0.09795768540501594,0.12151391755938529,-0.18149053961634634
1772660816749148700,1.772148681640625,-0.06194295369386672,0.1773538782030344,-0.29301738923378284
1772660816759186400,1.7821865234375,-0.08571428990364074,0.2606780580997467,-0.24954708081968127
1772660816769224700,1.792224609375,-0.20595036954693496,0.25477146440446374,-0.16076755812652407
1772660816779263500,1.802263427734375,-0.376544252095744,0.2424772154986858,-0.07665244704782963
1772660816789301800,1.8123017578125,-0.5411877748727798,0.23085692033171654,0.04004296431392431
1772660816799339500,1.822339599609375,-0.4378793760895729,0.1728787786155939,0.13016074987351894
1772660816809377800,1.832377685546875,0.03198160373754799,0.05306698879897594,0.13461027662828565
1772660816819415600,1.84241552734375,0.1273790102005005,-0.042729719179868696,0.023347046383097765
1772660816829454600,1.85245458984375,0.2672317905921489,-0.08354805178046226,-0.08688545257486402
1772660816839492600,1.86249267578125,0.3737386200904846,-0.06493629029095173,-0.09274586904086173
1772660816849530400,1.8725302734375,0.29440972037501634,-0.04916881231665611,0.02558613054677844
1772660816859568600,1.882568603515625,-0.010240750442072748,-0.12895838834643364,0.14484240537248552
1772660816869607400,1.892607421875,-0.23820786761641502,-0.17543898449242115,0.21476386366486547
1772660816879645700,1.902645751953125,-0.3061094374537468,-0.0958504839926958,0.3205269621238112
1772660816889683500,1.912683349609375,-0.28848259534835813,-0.05711421836316585,0.3980438439812511
1772660816899721700,1.9227216796875,-0.17194756218008697,-0.017758359530568122,0.4184369359295815
1772660816909760500,1.932760498046875,-0.0766623839199543,0.1077934352427721,0.45673429868519305
1772660816919798500,1.942798583984375,-0.09154898740649223,0.18652619569599627,0.5186024335771798
1772660816929836500,1.95283642578125,-0.10249584029130637,0.1951695208787918,0.5740260685048997
1772660816939874600,1.96287451171875,-0.035721338255144654,0.20658114173114298,0.6293734963912516
1772660816949913600,1.97291357421875,-0.15399229183793067,0.2242746193319559,0.6577745382282882
1772660816959951600,1.98295166015625,-0.3683891488213092,0.23683774830698964,0.6297283011782914
1772660816969989600,1.99298974609375,-0.4689724334895611,0.2402431728363037,0.6086090869124978
1772660816980027600,2.003027587890625,-0.4215922581553459,0.21612989132106303,0.62821541239731
1772660816990066400,2.01306640625,-0.3078349826047197,0.1349894852042198,0.701187709627673
1772660817000104700,2.023104736328125,-0.2768634692251682,-0.01483750364780426,0.7912034961175173
1772660817010142500,2.033142578125,-0.17672321561668067,-0.11895429620444774,0.6928291196703911
1772660817020180500,2.043180419921875,-0.011950002045370637,-0.12581190701425074,0.4578290351193398
1772660817030219500,2.053219482421875,0.1919278355438262,-0.10071019898355006,0.24700119572915136
1772660817040257500,2.063257568359375,0.1912438718676567,-0.06003039807081222,0.13446779941767453
1772660817050295600,2.073295654296875,0.012279599325917661,0.010007014751434326,0.12223353707082568
1772660817060333600,2.08333349609375,-0.12882628639936447,0.07733166148364544,0.15465842759646475
1772660817070372600,2.09337255859375,-0.09541264056470244,0.0880687440752983,0.17561404879838227
1772660817080410400,2.103410400390625,-0.11614800661206244,0.00893500160574913,0.17278138265572487
1772660817090448600,2.11344873046875,-0.3372130527803674,-0.05043605577349662,0.1595085710413754
1772660817100486400,2.123486328125,-0.6579156271994113,-0.014259996020793914,0.11117978974543512
1772660817110525700,2.133525634765625,-0.8532371237695217,0.04783960953950882,-0.03476853104233742
1772660817120563500,2.1435634765625,-0.751480046081543,0.16041268027424813,-0.16784100364409385
1772660817130601700,2.153601806640625,-0.48210550783965733,0.28903555305600165,-0.2237501570664346
1772660817140639500,2.163639404296875,-0.21264789442420004,0.32032793242037294,-0.24695173056423664
1772660817150678500,2.173678466796875,-0.11968198942448943,0.2603723531514406,-0.3474918336778879
1772660817160716500,2.183716552734375,-0.1429459971666336,0.060030982592701905,-0.42143955181166526
1772660817170754600,2.193754638671875,-0.16888477707598357,-0.21502982112467287,-0.5123470264442265
1772660817180792600,2.20379248046875,-0.1808090236255899,-0.41476270439624785,-0.5853237075887621
1772660817190831600,2.21383154296875,-0.12272037073969841,-0.5969838963747024,-0.6157955643504858
1772660817200869600,2.22386962890625,-0.036916064465045924,-0.7152770983219147,-0.6085315646968782
1772660817210907400,2.233907470703125,0.06397120811846106,-0.716102443230152,-0.5692948021993041
1772660817220945700,2.243945556640625,0.16561138142850249,-0.6331184550732374,-0.5166475001171231
1772660817230984400,2.253984375,0.24794947289731353,-0.5032721779763698,-0.4680924357846379
1772660817241022500,2.2640224609375,0.12408694638516753,-0.32542963947355746,-0.4362904994629323
1772660817251060500,2.274060546875,-0.03600300474073738,-0.05923369473516941,-0.4699941777527332
1772660817261098500,2.284098388671875,-0.19208675243258475,0.18556874884068963,-0.4701945226304233
1772660817271137500,2.294137451171875,-0.256145693633426,0.4396452167183161,-0.46432599592320617
1772660817281175600,2.304175537109375,-0.2093137998317368,0.5990040040254593,-0.4721391538921743
1772660817291213600,2.314213623046875,-0.28195701123820616,0.7021791318178177,-0.5280108248483389
1772660817301251600,2.32425146484375,-0.4061153240928426,0.7050204927235841,-0.5467169866230338
1772660817311290600,2.33429052734375,-0.40135607380177823,0.6374655443668366,-0.47118068412356073
1772660817321328600,2.34432861328125,-0.20768997975587844,0.5145096113055944,-0.2981078442405909
1772660817331366700,2.35436669921875,-0.03785013044476509,0.2721311800062656,-0.16681078381352127
1772660817341404700,2.36440478515625,0.23675120253469795,-0.02313946804702282,-0.007874240506440401
1772660817351442700,2.374442626953125,0.2885363348295912,-0.32700784857571125,0.19609357692115006
1772660817361481700,2.384481689453125,0.20940620908923446,-0.6260773043900728,0.30694420777745546
1772660817371519500,2.39451953125,-0.005867430728673934,-0.7714806315809488,0.3849617326334119
1772660817381557500,2.4045576171875,0.10567103626132011,-0.7614747858732939,0.4559976549737155
1772660817391595500,2.414595458984375,0.3171709296941757,-0.6852431945860386,0.4528886561077088
1772660817401634600,2.424634521484375,0.2155915466606617,-0.497984592962265,0.35523901373855765
1772660817411672600,2.434672607421875,-0.16209252311997116,-0.15309914239048958,0.2844610116820782
1772660817421710600,2.444710693359375,-0.4265080872476101,0.17577508457899094,0.28449966319203374
1772660817431748600,2.45474853515625,-0.35440384155604987,0.356191857483983,0.25236221130564807
1772660817441787400,2.464787353515625,-0.1437001034695655,0.3898918825119734,0.12618008273951709
1772660817451825700,2.47482568359375,-0.07009126190133393,0.37046295942068097,-0.06764949477240442
1772660817461863400,2.484863525390625,-0.10336571846101432,0.24511282469928264,-0.27040654817074533
1772660817471901700,2.494901611328125,-0.17256616900246588,0.13792027795910836,-0.3520595799848437
1772660817481940500,2.5049404296875,-0.19921222039833664,0.13156710954010487,-0.3295734612800181
1772660817491978800,2.514978759765625,-0.17810265074372292,0.1746434502005577,-0.20272892328239975
1772660817502016500,2.5250166015625,-0.14642039527893067,0.12432955950200557,-0.11443981445468962
1772660817512054500,2.535054443359375,-0.1623392644226551,-0.014754501539468765,-0.07812178894802928
1772660817522093600,2.545093505859375,-0.06527122133374214,-0.15821020179390907,-0.05058730081245303
1772660817532131600,2.555131591796875,0.04183313566632568,-0.29939094285368917,-0.10762911152653395
1772660817542169600,2.565169677734375,0.06710201695747674,-0.2803320221185684,-0.15089505647495388
1772660817552207400,2.575207275390625,0.014131401205062866,-0.13038403723537922,-0.0676264061577618
1772660817562246700,2.58524658203125,-0.0057972150366753334,-0.001107084459066391,-0.03281995425783098
1772660817572284400,2.595284423828125,-0.05915953352041542,0.08157236779332161,-0.07492481953762471
1772660817582322700,2.60532275390625,-0.19124036473631859,0.1262023676365614,-0.10386508281789719
1772660817592360400,2.6153603515625,-0.29530623082332313,0.10904489660859107,-0.09944251713529229
1772660817602399500,2.6253994140625,-0.23447269967608153,0.05673661722242832,-0.10457052767351269
1772660817612437500,2.6354375,-0.09826397487521171,0.014715338572859763,-0.09008717122562229
1772660817622475500,2.6454755859375,0.04401449829339981,-0.07543664151728152,-0.06557751080393791
1772660817632513500,2.655513427734375,0.026295228664204476,-0.1697030711889267,-0.08220255545563995
1772660817642552600,2.665552490234375,-0.10713584811687468,-0.21023031188845634,-0.11001432616263628
1772660817652590600,2.675590576171875,0.20171507006473838,-0.13233517130315303,-0.1747521712720394
1772660817662628600,2.685628662109375,0.21789807003736494,-0.053958384680747984,-0.22222557784765956
1772660817672666600,2.69566650390625,0.0034030133765190836,0.09585632921159266,-0.20169044708013534
1772660817682705700,2.70570556640625,-0.153428885801509,0.1945236241906881,-0.11455620737597345
1772660817692743400,2.715743408203125,-0.1623054352182895,0.1761941867738962,-0.05530658441931009
1772660817702781700,2.72578173828125,-0.21059037737250327,0.05151449865996837,-0.048955315696448086
1772660817712819500,2.7358193359375,-0.2264754173118621,-0.056232174831628796,-0.09217296452373265
1772660817722858800,2.745858642578125,-0.1463314748864621,-0.04355915574133396,-0.09175050132796168
1772660817732896500,2.755896484375,-0.09663198975920677,-0.030927053183317184,-0.049639060176908965
1772660817742934500,2.7659345703125,-0.09147066147327422,0.0017839608073234557,-0.025212767189741133
1772660817752972500,2.77597265625,-0.10669153841547667,0.020876199290156362,-0.023259879556298255
1772660817763011300,2.78601123046875,-0.008028919611498713,0.0309480959713459,0.005663286458700895
1772660817773049600,2.796049560546875,0.04298332861475646,0.022953005564212797,0.06929214741289615
1772660817783087600,2.806087646484375,-0.015060791009664535,-0.004383329650759697,0.11334770836904644
1772660817793125600,2.816125732421875,-0.031205285602807997,0.009323124140501023,0.09663885789141058
1772660817803164400,2.826164306640625,-0.027083237236738205,0.052010173222422594,0.06988704456612467
1772660817813202700,2.83620263671875,-0.04784888882450759,0.0943470936924219,0.08921557602286338
1772660817823240400,2.846240478515625,-0.0781084180098027,0.1541261473506689,0.05860314174667
1772660817833278700,2.85627880859375,-0.0935761093199253,0.16776421208083628,0.02647285025343299
1772660817843317500,2.8663173828125,-0.06540558830313384,0.12210428466796874,0.02581526312753558
1772660817853355500,2.87635546875,-0.09621113399863243,0.03376666052341461,0.06744754245951771
1772660817863393500,2.8863935546875,-0.08795293567590415,-0.07327040339410304,0.07315116092860698
1772660817873431600,2.896431640625,-0.0032722266037017106,-0.16265607528686524,0.005641220757365227
1772660817883469600,2.906469482421875,-0.03402392322011292,-0.17423954557478427,-0.02010360748246312
1772660817893508600,2.916508544921875,-0.08983056611604988,-0.10522036988437175,-0.016880115391314027
1772660817903546600,2.926546630859375,-0.029516017341613767,-0.061035191199183464,-0.0193082193210721
1772660817913584400,2.93658447265625,0.050178866142034526,-0.03876958337724209,-0.0352834948271513
1772660817923622700,2.94662255859375,0.050073652201890945,-0.022293080350756642,-0.06046791270524263
1772660817933661400,2.956661376953125,0.0062660015922039744,0.05300561400055885,-0.03584580488502979
1772660817943699700,2.96669970703125,-0.07855857293009758,0.03730243343412876,0.009526537758111953
1772660817953737500,2.976737548828125,-0.10313180010728537,0.008681319105625153,-0.01670198234543204
1772660817963775700,2.986775634765625,-0.0827658884268254,-0.035415596774220466,-0.08127294645532965
1772660817973814500,2.996814453125,-0.05959675589390099,-0.05620645586848259,-0.11113792336508631
1772660817983852500,3.0068525390625,-0.02477203768491745,-0.03045183688700199,-0.07254486559852957
1772660817993890600,3.016890625,-0.028923312145471572,-0.07076572709679603,-0.04338087656497955
1772660818003928600,3.026928466796875,-0.10704466270208358,-0.10612345620393752,-0.03783960905075073
1772660818013967600,3.036967529296875,-0.16282207950353622,-0.09872866977751255,-0.02936608747690916
1772660818024005600,3.047005615234375,-0.09429967435412108,-0.041644262030720705,-0.036282296606153244
1772660818034043600,3.057043701171875,-0.01959317374229431,-0.013053542840480804,-0.054614510501921176
1772660818044081400,3.067081298828125,-0.029392025635764003,0.04179097702503204,-0.056364276778697965
1772660818054120400,3.077120361328125,-0.054923941777274006,0.07344868257045746,-0.06066153558120131
1772660818064158700,3.08715869140625,-0.07343699213266372,0.06587210983633994,-0.05365297199338674
1772660818074196500,3.097196533203125,-0.08515906717367469,0.018036591950058935,-0.05068213948905468
1772660818084234500,3.107234375,-0.07330963942594826,-0.03275134600102901,-0.05956190377622842
1772660818094273500,3.1172734375,-0.03296586553454399,0.005167758026719093,-0.0344977512769401
1772660818104311600,3.1273115234375,-0.026785204138234257,0.055036243045330044,-0.022126345481723545
1772660818114349600,3.137349609375,-0.0915980872452259,0.08179565515518188,-0.05493146749660372
1772660818124387600,3.1473876953125,-0.2070586230497807,0.1151391218304634,-0.058402066216617816
1772660818134426600,3.157426513671875,-0.2605039436418563,0.10322890380620955,-0.055542000610381365
1772660818144464400,3.16746435546875,-0.1929997756242752,0.02275017646849155,-0.04852174658477306
1772660818154502700,3.177502685546875,-0.04060089045763016,-0.029733459484577177,-0.011138795260339975
1772660818164540400,3.18754052734375,0.005700257468223571,-0.07108487604856491,0.029816169331967828
1772660818174579700,3.197579833984375,0.02614449508190155,-0.09861994870603084,0.02584127435162663
1772660818184617500,3.207617431640625,-0.04150814149565994,-0.0793161132991314,-0.0219997964926064
1772660818194655700,3.21765576171875,-0.14077040669322013,-0.010577508115768432,-0.0029964053370058535
1772660818204693500,3.227693603515625,-0.22336919492483137,0.029421909317374227,0.03453421082980931
1772660818214732500,3.237732666015625,-0.22756489304900168,0.0837859521895647,0.04778013443723321
1772660818224770600,3.2477705078125,-0.06103570265583694,0.02485562431514263,0.05963628418669104
1772660818234808300,3.257808349609375,-0.10031440459899604,-0.012841945916414261,0.018222762171924114
1772660818244846300,3.267846435546875,-0.06439677658677101,-0.0006260229438543319,-0.04025156556330621
1772660818254885000,3.277885009765625,-0.0884393309533596,-0.028873627784848213,-0.07728738395050168
1772660818264923400,3.28792333984375,-0.13699673337340354,-0.03175356713533401,-0.09375563060529529
1772660818274961200,3.297961181640625,-0.155450089430809,-0.002824409770965576,-0.09312595439963042
1772660818284999400,3.30799951171875,-0.10678740000538528,0.05341244123578071,-0.05058664322532713
1772660818295038200,3.3180380859375,0.028099136281013487,0.06953472399711609,-0.008698270240426064
1772660818305076500,3.328076416015625,0.13486205943226814,0.01088905828297138,0.011951426817476749
1772660818315114200,3.3381142578125,0.06193477038741112,-0.08547931210398674,-0.01883066493719816
1772660818325152500,3.348152587890625,-0.059603697091341015,-0.12864274652600288,-0.000541778726503253
1772660818335191300,3.35819140625,-0.11312142533250152,-0.08391805413663386,0.03200330411270261
1772660818345229300,3.368229248046875,-0.1589152082581073,-0.029754502272605895,0.025379867384955287
1772660818355267300,3.378267333984375,-0.22373744371533394,0.013303133687376975,-0.009705985978245735
1772660818365305300,3.388305419921875,-0.20582301684021947,0.0505722493737936,-0.04918488666862249
1772660818375344400,3.398344482421875,-0.16139226589612662,0.06828501619696617,-0.055979588310047984
1772660818385382400,3.40838232421875,-0.1347990041334182,0.09846095875203609,-0.029398820702731608
1772660818395420400,3.41842041015625,-0.13353059163279832,0.08024141145050526,0.04593494496196508
1772660818405458200,3.428458251953125,-0.1518951003629714,0.028026071044802665,0.10632277816832066
1772660818415497200,3.438497314453125,-0.13652334370799363,-0.012984569257497787,0.07693886277377605
1772660818425535200,3.44853515625,-0.05640760446377098,-0.010427870512008667,0.043308834242075676
1772660818435573200,3.4585732421875,-0.028016207237914204,-0.009762100079655646,0.042807752852141855
1772660818445611300,3.468611328125,-0.07027706679701805,-0.002619242587685585,0.054845031322166324
1772660818455650300,3.478650390625,-0.105344873046875,0.017759528574347493,0.11010141992419957
1772660818465688300,3.488688232421875,-0.1157446865081787,-0.024546996757388112,0.11175400943681597
1772660818475726300,3.498726318359375,-0.08994505934119224,-0.04914835405051708,0.05597052822075784
1772660818485764400,3.508764404296875,-0.11716156756877899,-0.062381345111131664,0.0020676000542938708
1772660818495803400,3.518803466796875,-0.19539507326297462,-0.016698621344566345,0.025982801714166996
1772660818505841200,3.528841064453125,-0.2481072572749108,0.0179641112357378,0.08123195685781538
1772660818515879400,3.53887939453125,-0.033469723403453826,-0.014841595301032065,0.09332819897346198
1772660818525917200,3.548917236328125,-0.07129647297263145,0.003131283763051033,0.09722732530385256
1772660818535955500,3.55895556640625,-0.22307466895766556,0.05200023635029793,0.06577464081123471
1772660818545994200,3.568994140625,-0.16701193240880965,0.09721125095188617,0.0308664090372622
1772660818556032500,3.579032470703125,-0.054785994611307974,0.11580606130659579,-0.0022030630022287366
1772660818566070300,3.5890703125,-0.08557283560633659,0.09227087194025516,0.014169395127892493
1772660818576108300,3.5991083984375,-0.10410327548794447,0.05368190582692623,0.035767332821339363
1772660818586147300,3.609147216796875,-0.059594271675869816,-0.024666823744773865,0.017316460981965064
1772660818596185000,3.61918505859375,-0.018635726886987686,-0.06732756934165954,0.01920885059982538
1772660818606223400,3.629223388671875,-0.02890110031366348,-0.054074704536795616,0.04037862600907683
1772660818616261000,3.63926123046875,-0.0028957214415073393,0.0077472531259059904,0.02283332470729947
1772660818626300400,3.649300537109375,-0.05419336248040199,0.04306172761321068,0.009633213002979755
1772660818636338200,3.659338134765625,-0.13061265835948288,0.07001929264366627,0.035857641453295945
1772660818646376400,3.66937646484375,-0.17178287313766777,0.04175181405842304,0.09623436874374747
1772660818656414200,3.679414306640625,-0.2000140383005142,-0.014440028762817383,0.10754442891776561
1772660818666453200,3.689453369140625,-0.14049575447030366,-0.0263818109691143,0.13105039218962192
1772660818676491300,3.6994912109375,-0.10039981786012649,-0.030032150170207023,0.14270736610516904
1772660818686529300,3.709529296875,-0.0966950450580567,-0.049155368313193316,0.09512713815420866
1772660818696567300,3.7195673828125,-0.09247019390463829,-0.06196224291622638,0.009606909517943858
1772660818706606300,3.7296064453125,-0.0977029069263488,-0.06069032328426838,-0.016759996142983437
1772660818716644400,3.739644287109375,-0.12236739258356391,-0.040375265008211134,0.01629077119603753
1772660818726682400,3.749682373046875,-0.1111702912647277,-0.003989361897110939,0.007848521543294192
1772660818736720400,3.759720458984375,-0.07110255783572793,0.02813128498494625,-0.04069894400462508
1772660818746759400,3.769759521484375,-0.055914267988875506,0.044157121634483334,-0.046037382423132656
1772660818756797400,3.77979736328125,-0.07706460804529487,0.07022972052395343,-0.044493952373415226
1772660818766835200,3.789835205078125,-0.09912680224962532,0.08372925356626511,0.0021704759068787095
1772660818776873500,3.79987353515625,-0.1413386350352317,0.02054477537870407,0.04483502089604735
1772660818786912300,3.809912353515625,-0.12995675173401833,-0.06140577807724475,0.04342340053245425
1772660818796950300,3.8199501953125,-0.12790149970464407,-0.055845221340656274,0.08614595931917428
1772660818806988300,3.82998828125,-0.10166713438220322,-0.048455695611238477,0.06821195096075534
1772660818817026300,3.8400263671875,-0.05644026462435722,-0.04895429278314113,-0.0242437760271132
1772660818827065300,3.8500654296875,-0.06272160991616546,-0.030824177330732342,-0.09890870251953601
1772660818837103400,3.860103271484375,-0.09186126822605728,-0.010854571491479873,-0.11836217553019523
1772660818847141400,3.870141357421875,-0.12533325665183365,-0.02275017646849155,-0.09874152925908565
1772660818857179400,3.880179443359375,-0.20188575045652687,-0.03092763770520687,-0.07897738286405802
1772660818867218200,3.89021826171875,-0.24185645325183866,-0.0076578212767839425,-0.04417641085684299
1772660818877256400,3.90025634765625,-0.2114952172577381,0.0005073650002479553,0.010313450352102517
1772660818887294200,3.910294189453125,-0.1698901912588626,-0.028916297882795334,0.04944119951725006
1772660818897332200,3.920332275390625,-0.07212422903366386,-0.044836920592188835,0.025279402685165403
1772660818907371300,3.930371337890625,0.003579685117676854,-0.05704115312695503,-0.02689297536164522
1772660818917409500,3.940409423828125,0.01978496998734772,-0.0639747517824173,-0.05841317213252186
1772660818927447300,3.950447265625,-0.05148585708737373,-0.057768882879614826,-0.09643383683860302
1772660818937485300,3.9604853515625,-0.1997322987496853,-0.009887772285938262,-0.09123860628306865
1772660818947524400,3.9705244140625,-0.2610674227435142,0.04940320559442043,-0.06005699381679296
1772660818957562000,3.98056201171875,-0.24602182930298147,0.05229717347025871,-0.04496829188689589
1772660818967600400,3.990600341796875,-0.2001881527584046,0.08634206641316414,-0.03128580349311232
1772660818977638100,4.00063818359375,-0.16638532494306563,0.0831236888885498,-0.02373524198308587
1772660818987677400,4.010677490234375,-0.1870866791229695,0.04986322432160377,-0.02115750044956803
1772660818997715200,4.020715087890625,-0.20802900245189665,0.02370586975812912,0.00305646496117115
1772660819007753500,4.03075341796875,-0.23015432502031324,-0.000879120922088623,0.02357011454924941
1772660819017791200,4.040791259765625,-0.2159177098751068,-0.0029565117180347443,0.0407382531017065
1772660819027830300,4.050830322265625,-0.15088139327578245,-0.016053309178352355,-0.025306436822563408
1772660819037868300,4.060868408203125,-0.12411971614360809,-0.03529576978683471,-0.09913403570801019
1772660819047906300,4.07090625,-0.07363448746614158,-0.030569910308718678,-0.13808584378436206
1772660819057944300,4.0809443359375,-0.019856135527417062,0.06265607039928436,-0.09447861111760139
1772660819067983400,4.0909833984375,-0.06288403393626213,0.10329963095486164,-0.08167612042874098
1772660819078021400,4.101021484375,-0.0659959554117173,0.07795417729616165,-0.06796776694133877
1772660819088059400,4.111059326171875,-0.19551899190358815,0.022304770788550376,-0.00021291209831833839
1772660819098097400,4.121097412109375,-0.3725485335230827,0.013267477852106094,0.058913230609148735
1772660819108136400,4.131136474609375,-0.3226082253772765,0.01965980923771858,0.09285027926340698
1772660819118174200,4.14117431640625,-0.07440729846954346,-0.02221124728620052,0.04130304737761616
1772660819128212200,4.151212158203125,-0.1794283463895321,-0.03762041334211826,-0.03841448632925749
1772660819138250200,4.161250244140625,-0.2010007843155414,-0.01313479138314724,-0.08409457974731922
1772660819148289300,4.171289306640625,-0.08932897326946258,-0.02785071447789669,-0.12204247147813439
1772660819158327300,4.181327392578125,-0.06220715758800506,0.004736380872130394,-0.11149594302251935
1772660819168365300,4.191365234375,-0.050475803261995314,0.017480711632966994,-0.0635508272819221
1772660819178403300,4.2014033203125,-0.03417940604276955,0.02641980489194393,-0.014697072263807058
1772660819188442000,4.211442138671875,-0.043799321172758934,0.030498598638176916,0.012144465171545743
1772660819198480400,4.22148046875,-0.03057984718084335,0.04390460817813873,0.05704641382396221
1772660819208518100,4.23151806640625,-0.0672374799054116,0.019370470902323723,0.07106529456526041
1772660819218556400,4.241556396484375,-0.17651150909475982,-0.0068038347959518426,0.022255670949816703
1772660819228595200,4.25159521484375,-0.1729717906612903,0.003643909460306167,-0.009856354234367608
1772660819238633700,4.2616337890625,-0.09488887241892516,-0.012691723790764808,-0.020433277828246353
1772660819248671500,4.27167138671875,-0.07914769792966544,-0.006733107647299766,-0.008568652511388063
1772660819258709800,4.281709716796875,-0.16374796217679977,0.007846621847152709,-0.004981149413436651
1772660819268747500,4.29174755859375,-0.2224398051202297,0.030563480567932125,0.035285102262347934
1772660819278786600,4.30178662109375,-0.17547230224013327,0.06591536445617675,0.07309811556711793
1772660819288824600,4.311824462890625,-0.10637596966028214,0.0674380439788103,0.057258303008973596
1772660819298862300,4.3218623046875,-0.07827909840159118,0.042920273315906525,0.04995601717159152
1772660819308900600,4.331900634765625,-0.09093049018196761,0.00414484471976757,0.0009928104296326637
1772660819318939400,4.341939453125,-0.07742913050875068,-0.05470423461198806,-0.05157806541547179
1772660819328977700,4.351977783203125,-0.07397818633727729,-0.09888999781906604,-0.042906390921026466
1772660819339015400,4.362015380859375,-0.08446114803738891,-0.08996142595410346,0.006803104143589735
1772660819349053700,4.3720537109375,-0.0727367349088192,-0.05270400070548057,0.008821604359149932
1772660819359092500,4.382092529296875,-0.055183615626767275,-0.005638298147916793,-0.0028162264645099637
1772660819369130500,4.392130615234375,0.006083776893094182,0.005733575215935707,-0.07384601132497191
1772660819379168500,4.40216845703125,-0.0187958128195256,0.04455108938813209,-0.05522270552814006
1772660819389206500,4.41220654296875,-0.07523147433400154,0.04372165282666683,-0.011244593722373247
1772660819399245600,4.42224560546875,-0.1885118896204978,-0.004338321465253829,0.00891191299110651
1772660819409283600,4.43228369140625,-0.2723814284402877,-0.011658289089798927,0.009326631271839142
1772660819419321600,4.442321533203125,0.03433474273495376,-0.008298457267880439,0.0019146014496684073
1772660819429359600,4.452359619140625,0.04031337875314057,-0.01471066239774227,-0.04846154083013534
1772660819439398400,4.4623984375,-0.1315735392808914,0.012685878571867941,-0.0589312046572566
1772660819449436700,4.472436767578125,-0.11062661284208297,0.03658405603170395,-0.062178369884937995
1772660819459474700,4.482474609375,0.010589198553562164,0.01019289271235466,0.010744535245746374
1772660819469512400,4.492512451171875,-0.004853942837193608,-0.04112988276779651,0.04662263496518135
1772660819479551500,4.502551513671875,0.019698387682437896,-0.09911620779037475,0.05305003766417503
1772660819489589500,4.512589599609375,0.11119827525019645,-0.09157119923830032,0.04859729603901505
1772660819499627500,4.52262744140625,0.07931377521157264,-0.031442016968131065,0.029334669425338505
1772660819509665500,4.53266552734375,-0.05480820644311606,0.052503509697318075,0.004353957425802946
1772660819519704600,4.54270458984375,-0.09778466692566871,0.08878653695583343,0.00004720014259219169
1772660819529742600,4.55274267578125,-0.07912672820687293,0.11500994249284267,0.06009732582718134
1772660819539780600,4.562780517578125,-0.06568265167884528,0.11347849514186381,0.11957900397405027
1772660819549818600,4.572818603515625,-0.025701354424282907,0.0691331574589014,0.09292685163095593
1772660819559857700,4.582857666015625,0.001122355093434453,0.013688333612680435,0.0666015931546688
1772660819569895400,4.5928955078125,-0.022915596163272857,0.009704232412576674,0.03932297947630286
1772660819579933700,4.60293359375,-0.04293788203783333,-0.002531564304232597,0.06164324009492993
1772660819589971500,4.612971435546875,-0.04028400652818381,0.01773848578631878,0.05813304001688957
1772660819600010800,4.6230107421875,-0.06511215831451117,0.03505260868072509,0.05568608525618911
1772660819610048500,4.633048583984375,-0.105475879015401,0.048022564890980717,0.007040712291747331
1772660819620086800,4.643086669921875,-0.08309680088162422,0.05127075303196907,-0.03394727778732776
1772660819630124500,4.65312451171875,-0.06888122852444649,0.04019698583185673,-0.03394523196071386
1772660819640163600,4.66316357421875,-0.08684592428207397,0.022259178081154823,-0.028470161550492045
1772660819650201600,4.67320166015625,-0.06993212581686675,-0.017992168286442754,-0.03269055572450161
1772660819660239400,4.6832392578125,-0.05458725716881454,-0.0467073906391859,-0.018128800278156994
1772660819670277600,4.693277587890625,-0.006370046488568187,-0.042936639928817744,-0.004183569294959307
1772660819680316400,4.70331640625,0.019299670688435435,-0.041831309035420414,-0.007854074501246214
1772660819690354700,4.713354736328125,-0.040039822508767246,-0.011110592079162597,0.01511369024068117
1772660819700392400,4.723392333984375,-0.12650339640974997,0.012345102310180663,0.020584961258620024
1772660819710430700,4.7334306640625,-0.10465170315094291,-0.004223170652985573,0.04252016808241606
1772660819720469500,4.743469482421875,-0.014174728890135883,-0.013914543583989143,0.053432753371447324
1772660819730507500,4.753507568359375,0.013822700582072137,0.0016845920860767364,0.068813131724298
1772660819740545500,4.763545654296875,0.005364741903543472,-0.021948796957731245,0.03548281679153442
1772660819750583600,4.77358349609375,0.01686689058355987,-0.02736146965622902,0.02512991121187806
1772660819760622600,4.78362255859375,0.06666238343119621,-0.0017599954098463056,0.0604953852340579
1772660819770660600,4.79366064453125,0.029803602111339568,0.0024736966371536255,0.0755241736702621
1772660819780698600,4.80369873046875,-0.050690907317399975,-0.009430091646313667,0.025010230354964733
1772660819790736600,4.813736572265625,-0.10559731343798338,0.010461772781610488,0.044916415569186206
1772660819800775400,4.823775390625,-0.10688808390088379,0.02041091986596584,0.08996040304079651
1772660819810813700,4.833813720703125,-0.08896649663262068,0.0261205296844244,0.08589446877613663
1772660819820851500,4.8438515625,-0.10450199248194694,0.03255903829932213,0.06526581450626254
1772660819830889500,4.853889404296875,-0.0800702196020633,0.01132218900322914,0.037583150071650744
1772660819840928500,4.863928466796875,-0.05457103668637574,-0.0322159239500761,0.022799860829114914
1772660819850966500,4.873966552734375,-0.05008183550834656,-0.03348141384124756,-0.00905395181030035
1772660819861004500,4.884004638671875,-0.031651860326528544,-0.0016354922473430632,-0.023543226542323825
1772660819871042600,4.89404248046875,-0.07001746601276099,0.03978548242151737,-0.04428805453777313
1772660819881081600,4.90408154296875,-0.13642507096529005,0.021029928547143934,-0.011902619239687919
1772660819891119400,4.914119384765625,-0.10087452269978821,0.007166822889447212,0.003428074752539396
1772660819901157600,4.92415771484375,-0.10101122775673865,0.030151392635703086,0.027356647350639102
1772660819911195400,4.9341953125,-0.11353168663382529,-0.010180033230781555,-0.009168664231151341
1772660819921234700,4.944234619140625,-0.08456395082473754,-0.04644435578882694,-0.02254778576418757
1772660819931272400,4.9542724609375,-0.10769231295585632,-0.014883096355199812,-0.02019610807150602
1772660819941310700,4.964310791015625,-0.15362871922254562,0.026851766568422315,0.012997282608598469
1772660819951348500,4.974348388671875,-0.175170688945055,0.01798632306754589,0.005689297682791948
1772660819961387500,4.984387451171875,-0.20043840119242667,0.009350012147426605,0.0015823007553815841
1772660819971425500,4.994425537109375,-0.1652279716014862,-0.0050040918976068495,0.008082038038223981
1772660819981463600,5.004463623046875,-0.08875022353343665,-0.010952186647057533,-0.014237784188985823
1772660819991501600,5.01450146484375,-0.03703881406188011,0.0005441898792982101,-0.000043400750309228896
1772660820001540600,5.02454052734375,-0.049361631475016474,0.000009352350234985351,0.005537468121945857
1772660820011578600,5.03457861328125,-0.06941307037882506,0.01847206075787544,-0.029055121831595896
1772660820021616400,5.044616455078125,-0.10862060678191482,0.0270136791318655,0.0014060674056410789
1772660820031654700,5.054654541015625,-0.17380751083306967,0.006933598655462264,0.01732157554849982
1772660820041693400,5.064693359375,-0.1638601903796196,-0.014082885888218879,0.007132336097955703
1772660820051731700,5.074731689453125,-0.09825352654643356,-0.013232406538724898,-0.01734890194684267
1772660820061769500,5.08476953125,-0.07714753708839416,-0.01593991193175316,-0.01730710863173008
1772660820071807700,5.094807861328125,-0.1076186631977558,-0.010694412493705749,-0.02281272031068802
1772660820081846500,5.104846435546875,-0.08735102425999938,0.03063303867280483,-0.020923545563220975
1772660820091884500,5.114884521484375,-0.09192425045967101,0.03280629105865955,0.0021367197677493095
1772660820101922600,5.124922607421875,-0.1410860485136509,-0.0010433715730905533,-0.02043999982997775
1772660820111960600,5.134960693359375,-0.16418869168162345,0.010598550903797148,-0.03935542044118046
1772660820121999600,5.14499951171875,-0.28212993838600814,0.01737199056148529,-0.002236819141358137
1772660820132037600,5.15503759765625,-0.21317622914724052,0.022254501906037328,0.02011442113742232
1772660820142075600,5.16507568359375,-0.005728241453692317,0.03328852161765098,-0.0035430794343352316
1772660820152113700,5.17511376953125,-0.006043883274123072,0.07222761634290217,0.0014293021507561206
1772660820162152400,5.18515234375,-0.10405899795480072,0.08557751178145408,0.004882803605496883
1772660820172190700,5.195190673828125,-0.1147954229593277,0.06960895827710628,-0.015403759228438138
1772660820182228500,5.205228515625,0.0111970282536,0.021268998000025748,-0.02452361588180065
1772660820192266500,5.2152666015625,0.02908456712178886,0.011039864930510521,-0.07803659488260746
1772660820202305500,5.225305419921875,-0.1405062027990818,0.002121229937672615,-0.07540259311720729
1772660820212343600,5.235343505859375,-0.23231924796923994,-0.008222469422221183,-0.03636953649818897
1772660820222381600,5.245381591796875,-0.07791559885144234,-0.012960603860020637,0.0005991349369287491
1772660820232419600,5.255419677734375,0.031711481559276576,-0.03374503321349621,-0.019088292960077524
1772660820242458600,5.265458740234375,-0.06979534769468008,-0.05461071110963821,-0.03224690361022949
1772660820252496400,5.275496337890625,-0.20407989949993788,-0.0514390953361988,-0.004580605788528919
1772660820262534700,5.28553466796875,-0.2029682119309902,-0.008334697625041007,0.03183276985138655
1772660820272572400,5.295572509765625,-0.12000460897497832,0.0002858312040567398,0.07633695135787129
1772660820282610700,5.305610595703125,-0.055201078218221664,-0.0356885684967041,0.05670768338888883
1772660820292649500,5.3156494140625,-0.10120653113313019,-0.0715641839981079,-0.012941753029078244
1772660820302687700,5.325687744140625,-0.1365023009199649,-0.07634323496818542,-0.026438071200996636
1772660820312725500,5.3357255859375,-0.11836582879200577,-0.05686462751626968,-0.026274989593774077
1772660820322763500,5.345763427734375,-0.09221892255730926,-0.009367547804117202,-0.029088439579308033
1772660820332802600,5.355802490234375,-0.057298269693180914,0.01891045217514038,-0.011185118620097637
1772660820342840600,5.365840576171875,-0.08282200252823531,0.06520224775075913,0.003037175738811493
1772660820352878600,5.375878662109375,-0.10042436777949333,0.02167933236658573,-0.008643179052323103
1772660820362916400,5.385916259765625,-0.14064298092126845,-0.020098785176873205,-0.05451777212917804
1772660820372955600,5.39595556640625,-0.12247728269882499,-0.02798573903441429,-0.015693097563832997
1772660820382993400,5.405993408203125,-0.082200144302845,-0.017439210578799248,0.04311608814895153
1772660820393031700,5.41603173828125,-0.05157587345838546,-0.005958031621575355,0.04538461760282516
1772660820403069400,5.4260693359375,-0.2121230668324977,0.016287117934226988,0.006685907504707575
1772660820413108500,5.4361083984375,-0.2366496053237468,0.014379238486289978,-0.023807722697407007
1772660820423146500,5.446146484375,-0.20428572427034378,-0.0017874679386615752,-0.03983049060702323
1772660820433184500,5.4561845703125,-0.22381233558245,-0.002007248169183731,-0.045802843014895914
1772660820443222500,5.466222412109375,-0.17391170185990631,0.019271102181077002,-0.03726867729499936
1772660820453261600,5.476261474609375,-0.04360767105817794,0.058222471866011614,-0.03282660319432616
1772660820463299600,5.486299560546875,0.031159692895412445,0.05281272177696228,-0.014654402165859937
1772660820473337600,5.496337646484375,-0.05932531854137778,-0.01461655437350273,-0.011628916864842177
1772660820483375600,5.506375732421875,-0.11086853183917701,-0.011859364619851112,0.018206249428540468
1772660820493414700,5.51641455078125,-0.10635492687225341,-0.0038502456873655317,0.059327802759408944
1772660820503452400,5.526452392578125,-0.07901457306928933,-0.04222644583284855,0.032115093924105165
1772660820513490700,5.53649072265625,-0.12028766370005906,-0.05025193137824535,-0.029744857661426066
1772660820523528400,5.546528564453125,-0.10592596087045968,-0.05626783066689968,-0.04868234397396445
1772660820533567700,5.556567626953125,-0.09158413178510963,-0.019841011023521423,-0.019385814601927995
1772660820543605500,5.56660546875,-0.06072722122855484,0.03096504710614681,0.024430676901340483
1772660820553643500,5.5766435546875,-0.03413607835769653,0.06505027205944061,0.07470029006674886
1772660820563681500,5.586681640625,-0.053855581893399354,0.04379296449720859,0.07177358896508812
1772660820573720600,5.596720458984375,-0.07942848763242363,0.012369067707657814,0.04205547318011522
1772660820583758600,5.606758544921875,-0.053590208955481645,-0.04079728981256485,0.00006634323447942733
1772660820593796600,5.616796630859375,-0.05304075837917625,-0.058550973168015476,-0.048663493143022055
1772660820603834600,5.626834716796875,-0.05573657333441078,-0.043111411973834037,-0.03969415087625384
1772660820613873400,5.636873291015625,-0.028522403194382786,0.002093172886967659,-0.018388181866705416
1772660820623911700,5.64691162109375,-0.03714168991446495,0.04942541742622852,0.00828968943953514
1772660820633949400,5.656949462890625,-0.055624199001118535,0.06645137102901935,0.017313830633461473
1772660820643987700,5.66698779296875,-0.044703065079450606,0.017701076385378836,-0.014520838914066553
1772660820654026500,5.677026611328125,-0.06900390505604445,-0.006931260567903518,-0.08704919176921248
1772660820664064800,5.687064697265625,-0.10517653074264526,-0.026210546055436133,-0.1137099658101797
1772660820674102500,5.6971025390625,-0.0996889661770314,-0.02100187149643898,-0.06513911938667297
1772660820684140500,5.707140625,-0.07935578772239386,0.02201309436559677,-0.02667918648049235
1772660820694179600,5.7171796875,-0.078547978470847,0.05691255831122398,-0.010047346761822699
1772660820704217600,5.727217529296875,-0.04113974657468498,0.041216976529359815,0.008507862234860658
1772660820714255600,5.737255615234375,-0.021479937336966393,0.009387421548366547,-0.048545858112722634
1772660820724293400,5.74729345703125,-0.018782953337952494,-0.007615735700726508,-0.08230667341724038
1772660820734332700,5.757332763671875,-0.04687281033396721,0.022445056042075157,-0.04810658991262316
1772660820744370400,5.767370361328125,-0.09750884565897286,0.013657353952527046,-0.04447071762830019
1772660820754408700,5.77740869140625,-0.12473923628143965,0.00331657720208168,-0.052193859226256606
1772660820764446500,5.787446533203125,-0.06922368528656661,0.030953941190242765,-0.05159224007129669
1772660820774485500,5.797485595703125,-0.04914082833118737,0.034794250005483626,-0.03591784720793366
1772660820784523500,5.8075234375,-0.022817469551041723,0.030233225700259207,-0.06011500761434436
1772660820794561500,5.8175615234375,0.007807970337197184,0.027753683844208715,-0.07048880985155702
1772660820804599600,5.827599609375,-0.01445413035340607,-0.00004734627306461334,-0.0275800808429718
1772660820814638600,5.837638671875,-0.044877179537340994,-0.01575987918972969,0.0037776188425719735
1772660820824676600,5.847676513671875,-0.06535663459487259,0.008918634992837906,0.01910582861676812
1772660820834714600,5.857714599609375,-0.04099025510139763,0.024482699349522588,0.005244038133323192
1772660820844752600,5.867752685546875,-0.011294131952524185,0.041672319081425664,0.009738280812650919
1772660820854791700,5.877791748046875,-0.018878887993097303,0.034630583876371385,0.01795695084258914
1772660820864829400,5.887829345703125,-0.021088307670876383,0.03644377077817917,-0.018687895465642212
1772660820874867700,5.89786767578125,0.012298340559005737,0.03711597095131874,-0.021799743875861168
1772660820884905500,5.907905517578125,-0.010885039694979786,0.02569090609550476,0.00214300337806344
1772660820894944800,5.91794482421875,-0.022356866301968693,0.029061843833327293,0.008264262737333774
1772660820904982500,5.927982421875,-0.031172625442221758,0.02505085462629795,0.02908230209946632
1772660820915020500,5.9380205078125,-0.025981924931332466,-0.011147416958212851,0.009501257186383009
1772660820925058600,5.94805859375,-0.014648191620782017,-0.018935002094507217,-0.007681932804733514
1772660820935097300,5.958097412109375,-0.007712254877761006,-0.013576689931750296,-0.039056291364133355
1772660820945135600,5.968135498046875,0.015534326805546879,-0.013265139764547348,-0.04201367986500263
1772660820955173400,5.97817333984375,-0.023401845310255884,-0.006233341431617736,-0.016802812371402978
1772660820965211600,5.988211669921875,-0.0744913965564221,-0.01716974598765373,-0.020602789176255465
1772660820975250400,5.99825048828125,-0.07957797910571097,-0.03314005305767059,-0.03432049501389265
1772660820985288700,6.008288818359375,-0.011352584141492842,-0.004531213688850402,-0.02225815516784787
1772660820995326500,6.018326416015625,0.037319311503693456,0.032657237976789474,-0.006631985360383987
1772660821005364700,6.02836474609375,-0.037135844695568083,0.02242225968837738,-0.020260259348899124
1772660821015403500,6.038403564453125,-0.0981903251171112,0.010444821646809578,-0.04213789076656103
1772660821025441500,6.048441650390625,-0.09325462228059768,-0.019755086305737496,-0.045724517081677914
1772660821035479600,6.0584794921875,-0.05425999797582626,-0.01096972230374813,-0.03374240286499262
1772660821045517600,6.068517578125,-0.020343699848651885,0.02324702007472515,-0.014134323814511298
1772660821055556600,6.078556640625,0.015464038048312067,0.03387947324812412,-0.02821662518084049
1772660821065594600,6.0885947265625,0.03944828635640442,0.030329671812057493,-0.058995648195594545
1772660821075632600,6.098632568359375,-0.011357187251374124,0.022582418686151504,-0.026905980973690746
1772660821085670400,6.10867041015625,-0.07012976728081703,0.001547229442000389,-0.017244418659061192
1772660821095709400,6.11870947265625,-0.025855741268396376,-0.049694882017374035,-0.019302374102175234
1772660821105747500,6.12874755859375,0.0184171157002449,-0.05930500640571117,-0.006256576176732778
1772660821115785500,6.138785400390625,0,-0.028353987824916837,-0.0018811375714838504
1772660821125823500,6.148823486328125,-0.004320785808563233,0.02670095992088318,0.009269494257122278
1772660821135862500,6.158862548828125,0.06270173617191613,0.043187399819493294,0.05802461120635271
1772660821145900500,6.168900634765625,-0.03205992967076599,0.02696048763990402,0.05317512534856796
1772660821155938600,6.1789384765625,-0.21213826440162956,0.01647884111404419,0.023905191722512244
1772660821165976600,6.1889765625,-0.23779994440264998,-0.01870177786052227,0.016517565689235923
1772660821176015600,6.199015625,-0.19768537615723908,-0.020977321577072144,0.049391222895681854
1772660821186053600,6.2090537109375,-0.06428922455906867,-0.0059556935340166085,0.0038065526761114593
1772660821196091600,6.219091552734375,0.07045235029868781,-0.022890461722016333,-0.0205314775057137
1772660821206129700,6.229129638671875,0.001460135680437088,0.04752279867529869,0.005103460618853569
1772660821216168700,6.239168701171875,-0.05657119752764701,0.11049275732934474,0.04335661890655756
1772660821226206500,6.24920654296875,0.022903905725479123,0.07469312967360019,0.05630567845925689
1772660821236244700,6.25924462890625,0.10957469263635575,0.01616378381550312,0.036600422644615174
1772660821246282200,6.2692822265625,-0.0023836072009056804,-0.02300210540294647,0.008629881179332733
1772660821256321300,6.2793212890625,-0.1831434944551438,-0.020917700344324112,0.0186121998809278
1772660821266359300,6.289359375,-0.16310140790157018,-0.016652444115281103,0.009270078779011964
1772660821276397300,6.299397216796875,-0.0075542878370732066,0.009235445857048033,0.014813538250327109
1772660821286435300,6.309435302734375,0.014643369315192103,0.06519114183485508,0.037183044838160276
1772660821296474000,6.31947412109375,-0.08050853795409202,0.06045300739705562,0.036682547970116136
1772660821306512400,6.329512451171875,-0.18274017435126005,0.04340718005001545,0.02317980005741119
1772660821316550100,6.339550048828125,-0.17005378432273863,-0.006642506754398345,0.024172464356571433
1772660821326588400,6.34958837890625,-0.07948219058103859,-0.08637012346386909,0.014902823968976735
1772660821336626200,6.359626220703125,-0.05627433347292244,-0.07515840909779072,0.04479921893030405
1772660821346665500,6.36966552734375,-0.07688567128181457,-0.024707740277051925,0.08829246982857585
1772660821356703200,6.379703125,-0.11354103898406027,-0.013328268128633499,0.05531316029056906
1772660821366741500,6.389741455078125,-0.08674531345181166,0.00386427421271801,0.0023068156376481056
1772660821376779300,6.399779296875,-0.043667292290925974,0.017084990313649177,0.02651289000287652
1772660821386818300,6.409818359375,-0.028989947640895842,0.012726795104146003,0.01279752225279808
1772660821396856300,6.419856201171875,-0.035050197527930135,0.025058453410863876,0.04091200223341584
1772660821406894000,6.42989404296875,-0.07577033045105636,0.03020867578089237,0.05005027132630348
1772660821416932400,6.439932373046875,-0.09448672135882079,0.031157939329743384,0.03909545433074236
1772660821426971100,6.44997119140625,-0.086050901446864,0.013662614649534225,0.03767433548644185
1772660821437009400,6.460009521484375,-0.05792027404904365,-0.02238952646255493,0.007599076826870441
1772660821447047200,6.470047119140625,-0.0689198069691658,-0.05171323610246181,-0.014726298358291387
1772660821457085400,6.48008544921875,-0.2167501421112567,-0.012598200288414954,0.033543665422499175
1772660821467124200,6.490124267578125,-0.054505570234730835,0.03309913652539253,0.0879708366587758
1772660821477162200,6.500162353515625,-0.12567337532639503,0.07430676070451736,0.042474721505492925
1772660821487200300,6.5102001953125,-0.22451595380716025,0.08576222069859504,0.03310790435373783
1772660821497238300,6.52023828125,-0.11030739082507789,0.0695037443369627,0.041849575344473124
1772660821507277300,6.53027734375,-0.017290084431692956,0.03625672377347946,0.0031264614574611185
1772660821517315300,6.5403154296875,-0.0791102885287255,-0.016724340307712554,-0.050088703640550375
1772660821527353300,6.550353271484375,-0.08054945448637008,-0.020865093374252318,-0.026454876205325124
1772660821537391400,6.560391357421875,-0.029419059773162004,-0.01993745713531971,0.04410378401204943
1772660821547430400,6.570430419921875,-0.03321377588100731,-0.01232347500026226,0.0600086246304214
1772660821557468400,6.580468505859375,-0.043318844179436565,0.008527005326747893,0.019077771566063165
1772660821567506400,6.59050634765625,-0.08103818785138428,0.03745440912544727,0.03547302604988217
1772660821577544200,6.600544189453125,-0.0988836411435157,0.041949382457137106,0.003397241222858429
1772660821587583200,6.610583251953125,-0.10708090305924416,0.031128713235259054,-0.02428819969072938
1772660821597621200,6.620621337890625,-0.05857618067450821,0.02663198633790016,-0.022497078490257262
1772660821607659300,6.6306591796875,-0.025109818271920083,0.0246913736641407,0.005074088393896818
1772660821617697300,6.640697265625,-0.07849076839089393,0.04322948539555072,0.03296411196887493
1772660821627736300,6.650736328125,-0.09218487415723502,0.03855740193128586,0.059172027675807475
1772660821637774300,6.6607744140625,-0.053744449669122694,0.018798808494210242,0.07535729267075657
1772660821647812400,6.670812255859375,-0.052064460692927236,0.026434417939186095,0.02925239796936512
1772660821657850400,6.680850341796875,-0.06455686251930892,0.021375380983948707,-0.0002966448590159416
1772660821667889400,6.690889404296875,-0.05620988993458449,0.006935936743021011,-0.004575198961049318
1772660821677927200,6.70092724609375,-0.059041460098698734,-0.020317980885505675,-0.03485679384768009
1772660821687965400,6.71096533203125,-0.027600027652457355,-0.00412087932229042,-0.02680164381638169
1772660821698003200,6.721003173828125,-0.062256330491974946,-0.02527121937870979,-0.005780483097583055
1772660821708042500,6.73104248046875,-0.08684351312927902,0.009437105908989905,-0.00933013840317726
1772660821718080300,6.741080322265625,-0.08167991982102393,0.009900631767511367,0.005167319635301828
1772660821728118500,6.751118408203125,-0.08826046725511551,0.041812019813060756,0.001621171461045742
1772660821738156300,6.76115625,-0.08299867426939309,0.07330138305425643,-0.01279839903563261
1772660821748195300,6.7711953125,-0.053823944646120066,0.08265665589869022,-0.008694324717670678
1772660821758233300,6.7812333984375,-0.021048560182377694,0.06647708999216556,-0.0009638765960931778
1772660821768271000,6.79127099609375,-0.016309256700798868,0.027103695502877233,-0.01756561343744397
1772660821778309400,6.801309326171875,-0.05442950932383537,-0.007025368592143058,-0.011241232721507548
1772660821788348200,6.81134814453125,-0.06799502027444541,0.004601940837502479,-0.018513561812043187
1772660821798386400,6.821386474609375,-0.06235438403896987,0.02306757185459137,-0.030351445252448317
1772660821808424200,6.831424072265625,-0.03876892579011619,0.026698037311434743,-0.029900194353610274
1772660821818462500,6.84146240234375,-0.04570727368593216,-0.00009235445857048034,-0.058307812061905856
1772660821828501200,6.851501220703125,-0.039788405030965805,-0.026935353198647496,-0.059380117468535894
1772660821838539300,6.861539306640625,-0.026958149552345274,-0.036598669078946114,-0.040272096894681454
1772660821848577300,6.871577392578125,-0.04376198483705521,-0.054358197653293604,-0.021638708095252514
1772660821858615300,6.881615234375,-0.04372917854599655,-0.08238426869809627,-0.04579641327410936
1772660821868654300,6.891654296875,-0.03373392729759216,-0.07647533691525459,-0.017360153993219135
1772660821878692400,6.9016923828125,-0.019485621714591977,-0.026271920853853225,-0.022221330288797615
1772660821888730400,6.91173046875,0.011808511215448379,0.03353577437698841,-0.036676410490274425
1772660821898768400,6.921768310546875,-0.015087752081826328,0.05893968022465706,-0.05940963582396507
1772660821908807200,6.93180712890625,-0.06159340960383415,0.008453355568647384,-0.052658115737140174
1772660821918845400,6.941845458984375,-0.07590016737580299,0.011518003836274146,-0.04064633703455329
1772660821928883200,6.95188330078125,-0.059005073611065745,0.014283961418271063,-0.006245031869411468
1772660821938921200,6.961921142578125,-0.04938859254717826,0.0017950667232275008,-0.0021693068630993365
1772660821948960300,6.971960205078125,-0.022211758742854,-0.00010755202770233153,-0.010226064329594373
1772660821958998300,6.981998291015625,0.0004886602997779846,0.02795651293992996,-0.023260025686770675
1772660821969036300,6.992036376953125,0.015205825503543019,0.06918751799464225,-0.017517828772962093
1772660821979074300,7.00207421875,-0.03539747659564018,0.052826165780425066,-0.01221869945153594
1772660821989113300,7.01211328125,-0.02728190161399543,0.029302666851878163,0.004201981734484434
1772660821999151000,7.022151123046875,0.000028057050704956055,0.00552256281375885,0.011478110217303036
1772660822009189400,7.032189453125,-0.02169979063272476,-0.011361936491727828,-0.007814473143219947
1772660822019227400,7.042227294921875,-0.01667056429386139,-0.026738369321823118,-0.006135287884622812
1772660822029266400,7.052266357421875,-0.03259535172171891,-0.03356792308092117,-0.009392389984428881
1772660822039304200,7.06230419921875,-0.05578333508558571,-0.018260463833808898,-0.0007552022814750671
1772660822049342500,7.072342529296875,-0.05182378380484879,-0.018389058649539946,-0.003821165723353624
1772660822059380200,7.082380126953125,-0.07034136420488357,-0.025270634856820105,-0.02338569789305329
1772660822069419300,7.092419189453125,-0.08292137124948203,-0.004390343913435936,-0.030163229203969237
1772660822079457300,7.102457275390625,-0.09128361446857453,0.0002858312040567398,-0.04082213199287653
1772660822089495300,7.112495361328125,-0.04759878652095794,0.00805704972743988,-0.051716450972855085
1772660822099533300,7.122533203125,-0.014334887887910007,0.01058627594411373,-0.04135127043351531
1772660822109572400,7.132572265625,-0.03071903645582497,0.024203297886252403,-0.03663870882838964
1772660822119610400,7.1426103515625,-0.06002579496093094,0.015995441511273384,-0.057445350013673305
1772660822129648000,7.152648193359375,-0.07996032948680222,-0.001052139401435852,-0.0580880318313837
1772660822139686400,7.162686279296875,-0.09510872571468353,0.002220014137029648,-0.057835956766456365
1772660822149725200,7.17272509765625,-0.1142412231426686,0.00429039067029953,-0.07057868009209632
1772660822159763500,7.182763427734375,-0.05320895455293357,-0.0028869536131620405,-0.05459010671302676
1772660822169801200,7.19280126953125,0.007224690556526183,-0.0051829555958509445,-0.043182431383430954
1772660822179839500,7.202839599609375,-0.008880056548118591,0.02514963882565498,-0.05205284332036972
1772660822189878300,7.212878173828125,-0.04983275611810386,0.012364391532540321,-0.06610314211323857
1772660822199916300,7.222916259765625,-0.002484218031167984,0.005108136793971062,-0.05441971858218312
1772660822209954300,7.232954345703125,-0.02463642860651016,0.010589198553562164,-0.04639306399300694
1772660822219992300,7.242992431640625,-0.0722621761996299,-0.0010135609567165373,-0.05603986712992191
1772660822230031400,7.25303125,-0.15093889561668036,0.008550386202335357,-0.03204626647159457
1772660822240069400,7.2630693359375,-0.25334713068977,0.017474281892180442,-0.015577508360147475
1772660822250107000,7.27310693359375,-0.0779694479305297,-0.0020937574088573455,-0.02694967398494482
1772660822260145000,7.283144775390625,0.046419148282334205,-0.008591887256503105,0.005716331820189952
1772660822270183700,7.29318359375,-0.04405190769433975,0.01714402702450752,0.03920753640308976
1772660822280222000,7.303221923828125,-0.030622078887373207,0.03874152632653713,-0.024083763159811495
1772660822290259700,7.313259765625,0.10136888208799064,-0.00991407577097416,-0.10004735116064548
1772660822300297700,7.323297607421875,0.16813187634944915,-0.052175008395314214,-0.07462912452667951
1772660822310336000,7.3333359375,0.039689109374955296,-0.034493221232295035,-0.10216653527170419
1772660822320375000,7.343375,-0.20490648651719093,-0.012514613658189773,-0.06764774120673536
1772660822330412800,7.353412841796875,-0.24023725455217063,-0.010945172384381294,-0.001081073234975338
1772660822340450800,7.363450927734375,-0.08844159597568213,0.0008183306455612182,0.020632307531684636
1772660822350488800,7.37348876953125,-0.04011098804883659,0.029884850654006003,0.021601590955257415
1772660822360528000,7.38352783203125,-0.1275648881614208,0.029493805509805678,-0.024153905786573886
1772660822370566000,7.39356591796875,-0.21755437116622925,-0.00568330633342266,-0.06929273193478584
1772660822380604000,7.40360400390625,-0.14268281618580222,0.0003419453054666519,-0.0857889625750482
1772660822390643000,7.413642822265625,-0.06072714816331863,0.016820201897621154,-0.09192804985195398
1772660822400680700,7.4236806640625,-0.034867899763584134,0.023245851030945775,-0.05279620903357863
1772660822410719000,7.433718994140625,-0.09537643674015998,0.033012627285718917,0.013137860123068093
1772660822420756700,7.4437568359375,-0.15614092123918236,0.002645546072721481,-0.0006260229438543319
1772660822430796000,7.453796142578125,-0.15547113221883774,-0.007113046875596046,-0.027612521807849406
1772660822440833800,7.463833740234375,-0.13392448632121084,-0.016305238112807274,-0.01635053855925798
1772660822450872000,7.4738720703125,-0.1050830072402954,-0.031626725885272024,-0.06539893936663865
1772660822460909800,7.483909912109375,-0.052394204103946684,-0.014328385081887244,-0.08096241920143366
1772660822470948900,7.493948974609375,-0.022999913445860148,-0.0021259061127901074,-0.05329202972650528
1772660822480987000,7.50398681640625,-0.06677585374303162,-0.02436813305914402,-0.029343729514628648
1772660822491025000,7.51402490234375,-0.10177585545368492,-0.03915478330254554,0.003413169444352388
1772660822501063000,7.52406298828125,-0.09870594648905098,-0.03092763770520687,0.0000011690437793731689
1772660822511102000,7.53410205078125,-0.08329802254214883,-0.053064650711417194,-0.02280307569950819
1772660822521140000,7.544139892578125,-0.11950666939020156,-0.04725274956226349,-0.032169454459846016
1772660822531177700,7.554177734375,0.06740472623109817,-0.02257131277024746,-0.02780117624774575
1772660822541216000,7.564216064453125,-0.11268529893755912,-0.024675007051229474,-0.06557838758677244
1772660822551254800,7.5742548828125,-0.23197109211869538,0.03909691563546657,-0.0600640080794692
1772660822561292800,7.584292724609375,-0.1148994678556919,0.10128069234788417,-0.0373573784917593
1772660822571330800,7.594330810546875,-0.0483809133419767,0.0929483328104019,0.009897855288535356
1772660822581368800,7.604368896484375,-0.047334619159437714,0.022409400206804275,0.02273395598605275
1772660822591407900,7.614407958984375,-0.047098472316004336,-0.034010406151413916,0.037282705820351834
1772660822601446000,7.62444580078125,-0.0175462511498481,-0.06942366483807563,0.014814707294106482
1772660822611484000,7.63448388671875,-0.03044548021145165,-0.11200433093607425,-0.014725129314512014
1772660822621522000,7.64452197265625,-0.04158171818852424,-0.06373334424197673,-0.041052141356468196
1772660822631560000,7.654559814453125,-0.05549571378324181,-0.008899345770478248,-0.021768764215707778
1772660822641599000,7.664598876953125,-0.09244790900759399,0.055310968333482737,0.046806759360432625
1772660822651636700,7.67463671875,-0.11577383953742683,0.06439619206488133,0.03096680067181587
1772660822661674800,7.6846748046875,-0.10940730018019676,0.027048750445246694,-0.01745470040887594
1772660822671712800,7.694712646484375,-0.09712766432166099,0.010459434694051742,-0.014245967495441436
1772660822681752000,7.704751953125,-0.0875063609521836,0.00013677812218666077,-0.003492226029932499
1772660822691789800,7.714789794921875,-0.08143200947456061,-0.0339589682251215,-0.02665332138687372
1772660822701827800,7.724827880859375,-0.09923778834342956,-0.02364040330648422,-0.027819004165381193
1772660822711865900,7.734865966796875,-0.07610825716853141,0.01032967083454132,0.00994797804057598
1772660822721904600,7.744904541015625,-0.06664250968694686,0.008258709779381751,0.014701602308452128
1772660822731943000,7.75494287109375,-0.0422855556089431,0.021370704808831215,0.00342573666498065
1772660822741980700,7.764980712890625,-0.07735453090257942,0.012533318358659744,-0.019298428579419852
1772660822752019000,7.77501904296875,-0.10301149819586425,-0.019363456639647482,-0.03465118827298284
1772660822762057700,7.7850576171875,-0.09993570747971534,-0.03975099563002586,-0.03364654127508402
1772660822772096000,7.795095947265625,-0.11006083218548446,-0.03080897976160049,0.002243395012617111
1772660822782133800,7.8051337890625,-0.12872691767811775,-0.04800970540940761,0.020122019921988248
1772660822792172000,7.815172119140625,-0.08829089892599731,-0.022567221117019653,0.01806158026084304
1772660822802210800,7.8252109375,-0.040281778038479384,0.007833762365579604,0.058530661032348864
1772660822812248800,7.835248779296875,-0.08828041406460106,0.006701543465256691,0.05760404770672321
1772660822822286800,7.845286865234375,-0.1135621183047071,0.01474164205789566,0.020657003581523895
1772660822832324900,7.855324951171875,-0.07504566943831742,0.02250292370915413,0.030387539479136465
1772660822842364000,7.865364013671875,-0.06173018772602081,0.018466215538978575,0.040338878520578145
1772660822852401700,7.875401611328125,-0.0861305060217157,0.010955693778395652,0.044051030911505216
1772660822862440000,7.88543994140625,-0.10358206462543457,-0.0018155249893665312,0.05075958863943815
1772660822872477700,7.895477783203125,-0.12503986319582908,-0.001771101325750351,0.07578267847597599
1772660822882516700,7.905516845703125,-0.13190788580179214,-0.008780687826871872,0.055029082652181385
1772660822892554800,7.9155546875,-0.0996107133090496,-0.015048516049981116,0.013530512702465056
1772660822902593000,7.925593017578125,-0.12049334233999251,-0.010218027153611182,-0.008354279108345509
1772660822912630800,7.935630859375,-0.11179682566523551,0.01119067157804966,-0.004196136515587568
1772660822922669800,7.945669921875,-0.091532620793581,0.06147884331345558,0.038032501274347305
1772660822932707800,7.955707763671875,-0.06482004350014031,0.07304068629145621,0.06580795855894685
1772660822942745900,7.965745849609375,-0.06811904851291328,0.04679273083508014,0.05495075671896338
1772660822952784000,7.975783935546875,-0.08471366149373352,-0.0004068272352218628,0.021637831312417984
1772660822962823000,7.985822998046875,-0.08497318921275436,-0.05076455707550048,0.0062915013596415515
1772660822972861000,7.99586083984375,-0.10870941757652908,-0.04382511320114135,0.032710429468750954
1772660822982899000,8.00589892578125,-0.11511230688877402,-0.03193476892113686,0.05984101297855377
1772660822992937000,8.01593701171875,-0.10182959493491799,0.009613046997785568,0.10090075311958789
1772660823002976000,8.02597607421875,-0.10296707453224807,0.00808101512491703,0.09996800231412052
1772660823013013800,8.036013671875,-0.08090721841547638,-0.010932312902808189,0.031293986799567935
1772660823023051800,8.0460517578125,-0.0321031842906028,0.006575286737084388,-0.003692717038094997
1772660823033089800,8.05608984375,-0.0530734550723806,0.013019056048989295,-0.000048515316843986505
1772660823043129000,8.066129150390625,-0.07127780480477959,0.022883447459340095,0.007200725159049033
1772660823053166800,8.076166748046875,-0.07036240699291228,0.03147416567206383,0.04883826518803835
1772660823063204900,8.086204833984375,-0.08285941192917526,0.009529460367560387,0.09015256461203097
1772660823073243000,8.096242919921876,-0.08794833256602287,0.01884732381105423,0.10933350429162382
1772660823083281700,8.10628173828125,-0.0773989545661956,0.023094459861516953,0.11080050810426473
1772660823093320000,8.11631982421875,-0.10011800524406135,0.020040332987904547,0.0902431655049324
1772660823103357700,8.126357666015625,-0.0971088865559548,0.0020469956576824187,0.033572599256038664
1772660823113396000,8.13639599609375,-0.08235087788514793,-0.00847264479100704,-0.019520985288918016
1772660823123434800,8.146434814453125,-0.040372853855416176,0.023065818288922308,-0.024699703101068733
1772660823133473000,8.15647314453125,-0.03180851219296455,0.0661614481717348,0.019807693275809286
1772660823143510800,8.1665107421875,-0.08110361777041107,0.039378655186295505,0.03334609702378511
1772660823153549000,8.176549072265624,-0.12773209795448928,0.015866846695542336,0.05936901155263185
1772660823163587800,8.186587890625,-0.14213943002410231,0.024493220743536947,0.08568214119970798
1772660823173625900,8.1966259765625,-0.1436124251861125,-0.00044131402671337126,0.08947612665519118
1772660823183663900,8.206663818359376,-0.12984335448741913,-0.03977320746183395,0.04640826156213879
1772660823193701600,8.21670166015625,-0.04908814829587936,-0.04017711208760738,0.03151259798631072
1772660823203741000,8.226740966796875,-0.021973346877098083,0.007789923223853111,0.019719576600939034
1772660823213778700,8.23677880859375,-0.04233107525110245,0.03302314867973327,0.04066021942943334
1772660823223817000,8.24681689453125,-0.05709383316226303,0.04703180028796196,0.03776479024887085
1772660823233854700,8.256854736328124,-0.09153737003393471,0.039031449183821676,0.051124914820492265
1772660823243894800,8.266894775390625,-0.07432436942644417,-0.009705985978245735,0.056939592448621984
1772660823253932800,8.276932861328126,-0.049780295278504486,-0.003087444621324539,0.02468172905296087
1772660823263970800,8.286970703125,-0.026511647893860936,-0.009074702337384223,0.026465689860284327
1772660823274008800,8.2970087890625,-0.03385316976308823,0.0006207622468471527,0.027924071975052357
1772660823284048000,8.3070478515625,-0.03219539261870086,-0.012298925080895423,0.02272343459203839
1772660823294085600,8.317085693359376,0.06624152767062187,0.0042120647370815275,0.039410219368338585
1772660823304124000,8.3271240234375,-0.011405191111564636,0.013016717961430549,0.018861206205934285
1772660823314161700,8.33716162109375,-0.26811902175545693,0.01691372539997101,0.013782295506447552
1772660823324201000,8.347200927734375,-0.21707499015145001,0.039996494823694224,0.058272010096162556
1772660823334238700,8.35723876953125,-0.09574709668345749,0.02607084532380104,0.06974398283362389
1772660823344277000,8.367277099609375,0.03624043022580445,-0.004014496338367462,0.03259571704789996
1772660823354314800,8.377314697265625,-0.00020567863993346689,-0.01867956602871418,0.0028958675719797607
1772660823364353800,8.387353759765626,-0.05745850175619125,0.021134557965397833,-0.020353636720776558
1772660823374391800,8.397391845703124,0.005556465083360672,0.06967442472875118,-0.026684154916554688
1772660823384429600,8.4074296875,0.1466834301292896,0.07701426609754562,-0.01972162242755294
1772660823394467800,8.4174677734375,0.15461539217233658,0.042133506852388376,-0.03233297445848584
1772660823404507000,8.4275068359375,-0.07397241418361664,-0.022696400454640386,-0.017286796496063468
1772660823414545000,8.437544921875,-0.18270634514689443,-0.06126198569238186,-0.0019397358909249306
1772660823424582700,8.447582763671875,-0.04032514225617051,-0.07332008775472641,-0.02467909870445728
1772660823434621000,8.457620849609375,0.03971702029518783,-0.04187631722092628,-0.02280132213383913
1772660823444659700,8.46765966796875,-0.011700959187746046,0.013297872990369795,-0.03918474004939198
1772660823454697700,8.47769775390625,-0.13063487019129097,0.033603578916192055,-0.03865647839158773
1772660823464735700,8.48773583984375,-0.16796704117655753,0.036620296388864514,-0.016582739879935977
1772660823474773800,8.497773681640625,-0.12183313957639037,0.02173895359933376,-0.018862229119241236
1772660823484812800,8.507812744140624,-0.061734863901138304,0.007552022814750671,-0.04623495082184672
1772660823494850800,8.517850830078125,0.009196794347092509,0.01579085884988308,-0.005163374112546444
1772660823504888800,8.527888916015625,0.018798223972320557,0.01910509796440601,0.00413768432661891
1772660823514926800,8.5379267578125,0.009926277665421366,0.02238952646255493,-0.017624065626412628
1772660823524966000,8.5479658203125,-0.00845218652486801,-0.003045359045267105,-0.014720745400339364
1772660823535004000,8.55800390625,-0.03381349533982575,-0.009935703080892562,-0.036910073115676637
1772660823545042000,8.5680419921875,-0.03458148403763771,-0.015607903498411178,-0.031953765882551666
1772660823555079700,8.57807958984375,-0.020831264169886708,-0.018445757272839546,-0.0376895330555737
1772660823565118700,8.58811865234375,0.0018272884923964737,-0.04220364947915077,-0.03533069496974349
1772660823575157000,8.598156982421875,-0.010154387332871556,-0.025679215657711026,-0.05268880313634872
1772660823585194800,8.60819482421875,0.0028922873754054306,-0.02007774238884449,-0.07221475686132907
1772660823595232800,8.618232666015626,0.0199988319337368,-0.017440964144468305,-0.08698825536221265
1772660823605271800,8.628271728515625,-0.09893610198311507,-0.00781564218699932,-0.061168462190032004
1772660823615309800,8.638309814453125,-0.03212649210095406,0.012697569009661673,-0.02750906143337488
1772660823625347800,8.648347900390625,0.047780061371996994,0.0012304185777902603,-0.05589505183175206
1772660823635385900,8.6583857421875,-0.13870346422605215,0.03174830643832684,-0.06813508633226156
1772660823645425000,8.6684248046875,-0.08928213845305144,0.028110826718807217,-0.04177738689109683
1772660823655462700,8.678462646484375,0.029925182664394378,0.007564297774434089,-0.04991261642128229
1772660823665501000,8.6885009765625,0.09263393309898674,0.0073024319678544995,-0.08214271502718329
1772660823675538700,8.69853857421875,-0.007838365475460886,-0.007122983747720718,-0.12341858213692902
1772660823685578000,8.708577880859375,-0.022875848674774168,-0.03079728932380676,-0.10137348519787191
1772660823695615700,8.71861572265625,-0.00042195173911750315,0.009004559710621833,-0.0690096772097051
1772660823705654000,8.728654052734376,0.026300050969794393,0.05558452457785606,-0.039255759458988904
1772660823715691800,8.73869189453125,0.0023217209458351136,0.04671440490186214,-0.027114509157836437
1772660823725730800,8.748730712890625,-0.03808284322209656,0.012075637719035148,-0.04859714990854263
1772660823735768800,8.758768798828125,-0.06314356165528297,-0.0018424129962921142,-0.03684446053355932
1772660823745806600,8.768806640625,-0.07118665592260659,-0.006259060394763946,-0.04937544080466032
1772660823755844900,8.778844970703124,-0.034569793599843975,-0.012387772408127783,-0.03778364107981324
1772660823765884000,8.7888837890625,-0.007919175626710058,-0.002243395012617111,-0.021443477784097192
1772660823775922000,8.798921875,0.0034018443327397106,-0.011332125875353812,-0.02308013907521963
1772660823785959700,8.808959716796876,-0.01137260401621461,-0.018178046247363088,-0.00382701094225049
1772660823795998000,8.818998046875,0.003003273469209671,0.012535071924328803,0.019037001164257526
1772660823806036700,8.82903662109375,-0.00043963352628052235,0.00563888266980648,0.01406082018688321
1772660823816074800,8.83907470703125,-0.016857684363797306,0.0026624972075223923,-0.03938493879660964
1772660823826112800,8.84911279296875,-0.030481720568612217,0.0059510173588991164,-0.06426818177103996
1772660823836150800,8.85915087890625,-0.0823264010310173,0.020863339808583257,-0.07723053919672966
1772660823846189800,8.86918994140625,-0.08908581216335296,-0.015038579177856445,-0.06587108692303299
1772660823856227800,8.879227783203126,-0.07601005749106407,-0.03307517112791538,-0.05780073932260275
1772660823866265900,8.889265869140624,-0.07358553375788032,-0.01862988166809082,-0.029005291340500113
1772660823876304000,8.899303955078125,-0.027286650854349136,0.02997077537178993,0.008516483932733535
1772660823886342700,8.9093427734375,-0.03272621155977249,0.049046647241711615,0.02380889174118638
1772660823896381000,8.919380859375,-0.05334456363134086,0.052638534253835675,-0.008083353212475776
1772660823906418700,8.929418701171874,-0.08424246378540992,0.01813362258374691,-0.04087137796208262
1772660823916456700,8.939456787109375,-0.10507241278104483,0.0003577273964881897,-0.0547612254962325
1772660823926495700,8.949495849609375,-0.09412314874343573,-0.01907294926047325,-0.03493482751995325
1772660823936534000,8.959533935546874,-0.08500935650467872,-0.03209317435324192,-0.03321823286041617
1772660823946571800,8.96957177734375,-0.05841127243638038,0.03678513156175613,-0.024085662855952976
1772660823956609800,8.97960986328125,-0.048344709517434234,0.0799257696300745,0.014031886353343724
1772660823966648800,8.98964892578125,-0.0392051252502948,0.08133622094988822,0.03904430866539478
1772660823976686600,8.9996865234375,-0.07429733528904617,0.028730419921875,0.01839928778260946
1772660823986724900,9.009724853515625,-0.1030056895095855,0.014969605594873427,0.016210545566678045
1772660823996763000,9.019762939453125,-0.10144845013022422,-0.035167759492993354,-0.01450111130028963
1772660824006802000,9.029802001953126,-0.042750688902661205,-0.05813420906066894,-0.044182256075739855
1772660824016839700,9.039839599609374,-0.00995323873758316,-0.04085457295775413,-0.05194163803085684
1772660824026878000,9.0498779296875,-0.027695816177129743,-0.008001520147919654,-0.008697247327119111
1772660824036915700,9.059915771484375,-0.06297521935105324,0.0015127426505088806,0.020045301423966884
1772660824046954800,9.069954833984376,-0.11561601862721145,0.002007248169183731,0.0435365055181086
1772660824056992800,9.07999267578125,-0.15032156743593514,-0.018721067082881928,0.05874079665169119
1772660824067030800,9.09003076171875,-0.12541377454213798,-0.001726093140244484,0.022531126890331505
1772660824077068800,9.10006884765625,-0.05251929178833961,0.012016016486287116,-0.018631342972815036
1772660824087107800,9.11010791015625,-0.051093058377504344,0.016185411125421524,-0.039095015939325094
1772660824097145900,9.120145751953125,-0.02815649249143898,0.024610125121474265,-0.025701135228574274
1772660824107183600,9.13018359375,-0.03246208073087036,0.02318915240764618,-0.006567103430628776
1772660824117222000,9.140221923828125,-0.06994505836367607,-0.01036065049469471,0.015077011492103337
1772660824127261000,9.150260986328124,-0.11585925279855727,0.008608838391304016,0.02810819637030363
1772660824137299000,9.160298828125,-0.1105296552736312,0.060709612506628034,0.030183102948218583
1772660824147336700,9.170336669921875,-0.0971486340444535,0.05794716205596923,-0.004019464774429798
1772660824157375000,9.180375,-0.07274842534661292,0.05713116949796676,-0.007711451160162687
1772660824167413800,9.190413818359374,-0.05477664226107299,0.04214227468073368,-0.020350275719910858
1772660824177451800,9.20045166015625,-0.02914185026697814,0.004623568147420883,-0.04914280109256506
1772660824187489800,9.21048974609375,-0.031853008921816944,-0.008024316501617432,-0.034489714100956914
1772660824197527800,9.22052783203125,-0.05710428149104118,0.011956979775428771,0.001610796197503805
1772660824207566800,9.23056689453125,-0.11714987713098525,0.024291560691595077,0.08095905820056795
1772660824217604900,9.24060498046875,-0.13073650393486022,0.017571312525868413,0.08712766383290291
1772660824227643000,9.250642822265625,-0.11195932275056839,0.008546879070997238,0.04580211236253381
1772660824237681000,9.260680908203126,-0.10160619797520339,0.010716624325513839,-0.0028448680371046067
1772660824247719700,9.2707197265625,-0.07749467002563178,0.011387070932984352,0.00573386747688055
1772660824257757700,9.2807578125,-0.06058445175699889,-0.03294599179029464,0.005502981330454349
1772660824267795700,9.290795654296875,-0.03912438816428184,-0.05093114581406116,-0.009035977762192487
1772660824277833700,9.300833740234374,-0.04573883786797523,-0.009779635736346244,0.01141352054849267
1772660824287872800,9.310872802734375,-0.10314707074165344,0.00964344213604927,0.025632892297953364
1772660824297910800,9.320910888671875,-0.11244681400656699,0.007764204260706901,-0.0019686697244644166
1772660824307948500,9.330948486328126,-0.021084946670010686,0.050537178060412406,-0.009675298579037189
1772660824317986800,9.34098681640625,0.0195195239841938,0.052554947623610494,-0.010870938104391097
1772660824328025600,9.351025634765625,-0.02175933880023658,0.021970424267649648,-0.025849457658082244
1772660824338063600,9.361063720703125,-0.06969378701634704,-0.0037099604338407515,-0.018110680099576712
1772660824348101600,9.3711015625,-0.16793196986317632,-0.009211480459570884,0.02541924954727292
1772660824358139600,9.3811396484375,-0.14764095004983246,-0.0024485621958971024,0.07390650934055447
1772660824368178700,9.3911787109375,-0.027465514552593228,-0.03399520858228206,0.05858677513375878
1772660824378216700,9.401216796875,0.02691262991018593,-0.017326397854089737,0.020834990496933457
1772660824388254700,9.411254638671876,-0.17887999179176986,0.04741700021326541,0.016470511677116155
1772660824398292700,9.421292724609375,-0.08078319017700851,0.0512257448464632,0.0021260522432625293
1772660824408331500,9.43133154296875,0.06454758323431015,0.009487374791502952,0.007627280008047819
1772660824418369800,9.441369873046876,-0.02675707402229309,0.01481529181599617,0.03127031366303563
1772660824428407600,9.451407470703124,-0.06372669530548154,0.04710486552417278,0.03795578277632594
1772660824438445600,9.461445556640625,0.02556581841111183,0.0506809704452753,0.053402065972238774
1772660824448484600,9.471484619140625,0.1639385163128376,0.02112520561516285,0.038005905528366565
1772660824458523000,9.48152294921875,0.09808386906795204,0.001665302863717079,0.003468552893400192
1772660824468560600,9.491560546875,-0.11933715804219246,-0.03339958077669143,-0.0028590426929295063
1772660824478598700,9.5015986328125,-0.19770751492381095,-0.03648410278856754,0.029469693981856105
1772660824488637700,9.5116376953125,-0.06750066088624299,-0.01431552560031414,0.08726210386753082
1772660824498675700,9.52167578125,0.05455467007346451,0.016871055302023888,0.0698939126983285
1772660824508713700,9.531713623046874,0.012813888865709304,0.03243161252737045,0.016255553752183915
1772660824518751700,9.541751708984375,-0.11973455986194312,0.03212590757906437,0.00039718262404203413
1772660824528790800,9.551790771484375,-0.15281396877355874,0.03513736435472965,0.0028415070362389086
1772660824538828500,9.56182861328125,-0.07467500949501991,0.03942892406880855,0.026639585122466086
1772660824548866800,9.57186669921875,-0.005880290210247039,0.020931144347786902,0.027810966989398
1772660824558904600,9.581904541015625,-0.015665113578364254,-0.015775076758861542,0.06971198026016354
1772660824568943600,9.591943603515626,-0.057581251353025435,-0.03725508716106415,0.09049480217844247
1772660824578981600,9.601981689453124,-0.08754501246213912,-0.017913257831335065,0.03448182305544614
1772660824589019600,9.61201953125,-0.07781045797653496,-0.02868774982392788,-0.007833031713217496
1772660824599057700,9.6220576171875,-0.050402153503894806,0.0054787236720323556,-0.006939005482941865
1772660824609096700,9.6320966796875,-0.023856676405668256,0.03007540479004383,-0.03722878367602825
1772660824619134700,9.642134765625,0.00007248071432113647,0.04573825334608555,-0.026855565960705277
1772660824629172700,9.6521728515625,0.012032894555851817,0.019554595297574997,-0.019125556230545043
1772660824639210800,9.662210693359375,0.010022139255329967,-0.013607669591903685,-0.01868234250769019
1772660824649249800,9.672249755859376,-0.010806567631289362,-0.04841419455707073,-0.016076105532050133
1772660824659287800,9.682287841796875,-0.13199907121658325,-0.009536474630236625,0.00288958396166563
1772660824669325600,9.69232568359375,-0.09721066642999648,0.01597907489836216,0.05208557654619217
1772660824679363800,9.70236376953125,0.12244096927642821,0.016458967369794845,0.046842853587120765
1772660824689402600,9.712402587890624,-0.10495441242456435,0.011540215668082237,0.017621873669326306
1772660824699440600,9.722440673828125,-0.1915712041258812,0.04870762454569339,-0.014441051676124333
1772660824709478700,9.732478759765625,-0.09098433926105498,0.06277472834289073,-0.008810498443245888
1772660824719516700,9.7425166015625,0.06642974371910094,0.05891279221773147,-0.011971446692198514
1772660824729555700,9.7525556640625,0.0381857190746814,0.04146306024491787,-0.009205489110201597
1772660824739593700,9.76259375,0.003742182203009724,0.044851533639431,0.03896335238367319
1772660824749631700,9.7726318359375,0.05715922654867172,0.026199440139532088,0.09138166801556945
1772660824759669800,9.782669677734376,0.04923771283440292,-0.01990823104083538,0.05554667678549886
1772660824769708500,9.79270849609375,-0.014152517058327794,-0.052853638309240336,0.005202390948683023
1772660824779746800,9.802746826171875,-0.06368256390281021,-0.03466799327731132,-0.014597557412087916
1772660824789784600,9.81278466796875,-0.042753100055456156,0.004545826736092567,-0.001663695428520441
1772660824799822600,9.822822509765626,0.005814823758602142,0.041187750434875485,0.020301906533539294
1772660824809861600,9.832861572265625,0.03724924194216728,0.04371113143265247,0.001968815854936838
1772660824819900000,9.84289990234375,0.009913418183848261,0.016460136413574217,0.00834375771433115
1772660824829937700,9.852937744140625,-0.02071194863915443,-0.007698737809062004,0.040087680238485336
1772660824839975700,9.8629755859375,-0.03553768878392875,-0.049987142962217325,0.03570946515426039
1772660824850014700,9.8730146484375,-0.006880918620154261,-0.07281681440770625,0.013903437668085097
1772660824860052500,9.883052490234375,0.005292261189222335,-0.03190320473909378,0.018803923060745
1772660824870090800,9.8930908203125,0.015072408382222055,0.015627192720770833,0.03187850868925452
1772660824880128500,9.90312841796875,0.044934462682530284,0.03489595681428909,-0.04619096554964781
1772660824890167800,9.913167724609375,0.025298107385635375,0.04670446802973747,-0.0787774763777852
1772660824900205600,9.92320556640625,-0.01766417844109237,0.011654781958460807,-0.058930035613477226
1772660824910243800,9.933243896484376,-0.031849428725242615,-0.015794950503110885,-0.06461787199154496
1772660824920281600,9.943281494140624,0.003031330519914627,-0.012849544700980186,-0.06694952980950475
1772660824930320600,9.953320556640625,0.012349851550534367,0.002838438296318054,-0.01210237959548831
1772660824940358700,9.963358642578125,-0.009838672447204589,0.0019347674548625944,-0.018518676378577948
1772660824950396700,9.973396728515626,-0.017684125250577925,0.013729834666848182,-0.03231909206360578
1772660824960434700,9.9834345703125,-0.004423661661148071,0.03993102837204933,-0.02644742355123162
1772660824970473700,9.9934736328125,0.005807882561162114,0.03610767069160938,-0.022339111449569463
1772660824980511700,10.00351171875,0.016303557612374425,0.01734276446700096,-0.02717544556483626
1772660824990549800,10.0135498046875,0.008085106778144837,0.01355214001238346,-0.04599442006424069
1772660825000587800,10.023587890625,0.015654665249586103,-0.007301847445964813,-0.05381503068730235
1772660825010626800,10.033626708984375,0.012084332482144236,-0.03297346431910991,-0.08014072755500674
1772660825020664600,10.04366455078125,-0.006425137676671147,-0.017942483925819395,-0.0988370985880494
1772660825030702600,10.05370263671875,0.006269581788778305,0.015192308434844017,-0.0943997006624937
1772660825040740600,10.06374072265625,-0.031356092250347134,-0.002153378641605377,-0.05965192014724016
1772660825050779600,10.073779541015625,-0.05785597664117813,-0.021617957568168637,-0.0401401410780847
1772660825060817700,10.083817626953126,0.005706102687120437,-0.00651332741677761,-0.0589062163464725
1772660825070855700,10.093855712890624,0.012833835675194858,0.0069517188340425485,-0.07956029731854795
1772660825080893700,10.103893798828125,0.008760814082622527,0.0010813654959201812,-0.10532236895412206
1772660825090932500,10.113932373046875,0.001785129851102829,0.01691489444375038,-0.12988880106434225
1772660825100970800,10.123970703125,0.018159926068782806,0.019758593437075613,-0.09857698634713888
1772660825111008800,10.1340087890625,0.0035598113734275102,0.030539515170454976,-0.057559477912634605
1772660825121046800,10.144046875,-0.0627015900414437,0.008995791882276534,-0.03802738670781255
1772660825131085600,10.15408544921875,-0.08811893989257515,0.004321954852342606,-0.0359869669213891
1772660825141123800,10.164123779296874,-0.08320552195310592,0.012643208473920822,-0.03784180100783705
1772660825151161600,10.17416162109375,-0.03813545019216835,0.023358663755655287,-0.08550693076327442
1772660825161199600,10.18419970703125,-0.01473104759864509,0.02557809337079525,-0.1317455348469317
1772660825171238700,10.19423876953125,0.0038672698874026535,0.04445230518877506,-0.08853402349948883
1772660825181276700,10.204276611328124,0.00805346953086555,0.048688335323333734,-0.06335019014328717
1772660825191314700,10.214314697265625,-0.011200608450174331,0.01974047325849533,-0.025726561930775643
1772660825201352700,10.224352783203125,-0.027960093136504292,0.01311433311700821,0.0008196458198130131
1772660825211390700,10.234390625,-0.04180032937526702,-0.017201310169696806,-0.02441884033307433
1772660825221429500,10.244429443359374,-0.09044431410022079,-0.03156535108685493,-0.056272652972489595
1772660825231467800,10.2544677734375,-0.06314589974284171,-0.012459084078669547,-0.01954685038253665
1772660825241505500,10.264505615234375,-0.025826515173912046,-0.01625438470840454,0.007481880187988281
1772660825251544800,10.274544921875,0.04313771545886993,-0.028732758009433746,-0.02054740572720766
1772660825261582800,10.284582763671875,0.06586509557366371,-0.03294423822462558,-0.031832039199024435
1772660825271620900,10.294620849609375,0.013297799925133585,-0.0003355155646800995,-0.038311756607145066
1772660825281659000,10.304658935546875,-0.058613590075448155,0.010503273835778235,-0.04240019496455788
1772660825291697700,10.31469775390625,-0.059711249119043346,0.023841478836536405,-0.008471329616755247
1772660825301736000,10.32473583984375,-0.07995674929022789,0.023349311405420303,0.00955634837448597
1772660825311773700,10.334773681640625,-0.10291918026991188,0.009316109877824783,0.015046762484312057
1772660825321812000,10.34481201171875,-0.04831321840062737,-0.002825578814744949,-0.007274667178094387
1772660825331849700,10.354849609375,0.004428337836265564,-0.012416413980722426,0.004614069666713476
1772660825341889000,10.364888916015625,0.014542977680638431,-0.02140051542520523,0.004224778088182211
1772660825351926800,10.3749267578125,0.013060630168393254,-0.032903321692347526,0.006678454850614071
1772660825361964800,10.38496484375,-0.027695816177129743,-0.013512392523884772,0.009837357272952794
1772660825372003800,10.39500390625,-0.041273163696005935,0.018161679634451866,-0.04051335830464959
1772660825382041600,10.40504150390625,-0.028689430324360728,0.01946340988278389,-0.06381371600180864
1772660825392080000,10.415079833984375,-0.02984802577495575,0.02898644050955772,-0.027567221361398695
1772660825402117600,10.42511767578125,-0.031626068298146126,0.00839081172645092,0.004422054225951433
1772660825412157000,10.435156982421875,-0.08393858546800911,0.008671966755390167,0.030068828918784856
1772660825422194700,10.445194580078125,0.038368089904263616,-0.011411620852351189,0.07132716037183999
1772660825432233000,10.45523291015625,-0.0032907851736992595,-0.043162849900126456,0.043928427445143456
1772660825442270700,10.465270751953126,-0.22818097912073135,-0.03942950859069824,-0.014875059179216622
1772660825452309800,10.475309814453125,-0.20131043478660285,0.014783727633953093,0.00748626410216093
1772660825462347800,10.48534765625,-0.07554017495699226,0.03637129006385803,0.04075330454036593
1772660825472385800,10.4953857421875,-0.009500745729729533,0.022376082459092138,0.013065525539219379
1772660825482423800,10.505423828125,-0.039532311378046865,0.017096096229553222,-0.012093465636670589
1772660825492462800,10.515462890625,-0.10765373451113701,0.027855975174903867,-0.010891834761947394
1772660825502500900,10.5255009765625,-0.034469328900054094,0.04865326400995254,-0.0208332369312644
1772660825512539000,10.535538818359376,0.1368060331068933,-0.0005342530071735382,-0.02089607303440571
1772660825522577000,10.545576904296874,0.09220942407660186,-0.013116086682677268,0.008452771046757698
1772660825532616000,10.555615966796875,-0.13038469482250511,0.010358312407135964,0.04408040313646197
1772660825542653700,10.56565380859375,-0.18771102156639097,0.0006055646777153015,0.04684139228239655
1772660825552691700,10.575691650390626,-0.058387891560792916,-0.006986790147423744,0.03816328804716468
1772660825562729700,10.585729736328124,0.0166612119436264,0.004850947162508964,-0.028021541000157593
1772660825572767700,10.595767822265625,-0.0321288301885128,0.020647066709399222,-0.05348126868829131
1772660825582806800,10.605806884765625,-0.18387553505674004,0.015584522622823714,-0.01622325891777873
1772660825592844800,10.6158447265625,-0.17920045591779052,0.027962942680716512,0.025068390282988545
1772660825602882800,10.6258828125,-0.11255677718706428,-0.02675707402229309,0.04755567803159356
1772660825612920800,10.6359208984375,-0.03175590522289276,-0.04156125992238521,0.04735182602256536
1772660825622959900,10.6459599609375,-0.033565511928126214,-0.028378537744283675,0.0837076262563467
1772660825632997600,10.65599755859375,-0.08045936505012213,-0.008075169906020164,0.08877367747426032
1772660825643036000,10.666035888671875,-0.11844400859475135,0.004428337836265564,0.013590426196157931
1772660825653073700,10.67607373046875,-0.1078454576909542,0.008345803540945053,-0.015001608168333768
1772660825663113000,10.686113037109376,-0.10047470972724258,0.022981062614917752,0.008785802393406629
1772660825673150700,10.696150634765624,-0.11034253520369529,0.015721300745010373,0.031189795772731302
1772660825683189000,10.70618896484375,-0.11437807433009146,-0.024033202016353606,0.03382540497332811
1772660825693226800,10.716226806640625,-0.06695354839749634,-0.03725917881429195,0.017039543736726045
1772660825703265800,10.726265869140626,-0.00029109190106391906,-0.03498188153207302,0.00858969529941678
1772660825713303800,10.7363037109375,0.004830488896369934,0.004680266770720482,-0.007596738739311695
1772660825723341800,10.746341796875,-0.07670571160502732,0.004576806396245956,-0.018260025442391633
1772660825733380900,10.756380859375,-0.25257548873014746,0.003619359540939331,-0.005059913738071918
1772660825743418600,10.766418701171874,-0.1243500177681446,0.01397474933862686,0.021742606861144303
1772660825753457000,10.776456787109375,-0.053925578389689324,0.009369301369786262,0.03520122337117791
1772660825763494700,10.78649462890625,-0.2684334945321083,0.036112931388616556,0.04841857847124338
1772660825773533000,10.796532958984375,-0.14890936255045234,0.0741483552724123,0.05296382068544626
1772660825783571700,10.80657177734375,0.06720007050447166,0.08021803057491779,0.017129852368682624
1772660825793610000,10.81660986328125,0.09967267262935638,0.02905015339553356,-0.006252192262560129
1772660825803647700,10.826647705078125,-0.0337713366985321,-0.018472645279765127,0.004037731083482504
1772660825813686000,10.83668603515625,-0.07623327178768813,-0.020126257705688474,0.05417831104174256
1772660825823724800,10.846724853515624,-0.04887772041559219,-0.02246843691766262,0.10575155415162443
1772660825833762800,10.8567626953125,-0.05176292046308517,-0.039432431200146674,0.052002720568329094
1772660825843800800,10.86680078125,-0.07753573268838226,-0.02483691961467266,0.024175094705075024
1772660825853838800,10.8768388671875,-0.040136780077219006,-0.0002332242339849472,0.030622955670207737
1772660825863878000,10.8868779296875,-0.038490766435861586,0.028982348856329915,0.02969897269308567
1772660825873916000,10.896916015625,-0.058315483911707995,0.047692894545197484,0.019830489629507064
1772660825883954000,10.906953857421875,-0.05769822879619896,0.03564239126741886,0.02576733233258128
1772660825893993000,10.916992919921874,-0.08669635974355042,0.009037877458333968,0.05618541308045387
1772660825904030700,10.92703076171875,-0.07714293397851288,-0.042337504991889,0.034577392384409905
1772660825914068700,10.93706884765625,-0.06745740626640617,-0.050038580888509744,0.04516381445899605
1772660825924106800,10.947106689453125,-0.04447517460770905,-0.01926291887462139,0.052769759418070314
1772660825934146000,10.95714599609375,-0.027658406776189803,0.008845569756627081,0.014420593409985303
1772660825944183800,10.967183837890625,-0.06662146689891815,0.011377134060859679,-0.027969080160558223
1772660825954221800,10.977221923828125,-0.09250650732703507,0.003466799327731132,-0.04434460703060031
1772660825964259800,10.987259765625,-0.09563136134929955,-0.01462532220184803,-0.02844298128262162
1772660825974298600,10.997298583984374,-0.08793423097543418,-0.008784194958209991,-0.03079641254097223
1772660825984337000,11.0073369140625,-0.05958382334709167,-0.013120762857794762,-0.02225727838501334
1772660825994374700,11.017374755859375,-0.031606340684369204,-0.010557634371519088,-0.034213381377607585
1772660826004413000,11.027412841796876,-0.0400233097653836,0.04231587768197059,-0.03296878814399242
1772660826014451700,11.03745166015625,-0.06930676046013831,0.0503062919139862,-0.006722147861868142
1772660826024490000,11.047489990234375,-0.0766799195766449,0.019399112474918365,-0.0031812603846192358
1772660826034527700,11.05752783203125,-0.06918050373196602,0.012162146958708762,-0.0017766542837023733
1772660826044566000,11.06756591796875,-0.013625205248594284,0.017272037318348882,-0.00882131209820509
1772660826054604800,11.077604736328125,-0.010787935996055603,-0.009022095367312431,-0.02686287248432636
1772660826064642800,11.087642822265625,-0.046031171878054736,-0.010952771168947219,-0.03609875673279166
1772660826074680800,11.097680908203126,-0.07965878925696016,0.002915595185756683,-0.004232815264165401
1772660826084718600,11.107718505859374,-0.07832366819567978,0.007760697129368782,0.004685965859144926
1772660826094758000,11.1177578125,-0.014321955341100692,0.025280571728944778,-0.008231383381038904
1772660826104795600,11.127795654296875,-0.023701266648247836,0.026043957316875456,-0.03210544931292534
1772660826114834000,11.137833984375,-0.015666428752616045,0.019454057532548905,-0.04830766544267535
1772660826124871700,11.14787158203125,-0.03278356777019799,0.010002338576316832,-0.04997457574158907
1772660826134910700,11.15791064453125,-0.045026963271573184,0.01883212624192238,-0.009295213220268488
1772660826144948700,11.16794873046875,-0.06202252173610031,-0.013468553382158278,-0.010475362915545702
1772660826154986800,11.17798681640625,-0.06734985423870385,-0.03080956428349018,-0.037649054914712904
1772660826165024800,11.188024658203124,-0.05767711294293403,0.007191372808814048,-0.027523674480617044
1772660826175063800,11.198063720703125,-0.03636076866984367,0.023353987580537795,0.001240793841332197
1772660826185101800,11.208101806640625,0.0033434652090072628,-0.011904957327246665,-0.005159574720263481
1772660826195139800,11.218139892578124,-0.0013291297119110822,0.0006055646777153015,-0.035422757167369125
1772660826205177900,11.228177734375,-0.028922143101692197,-0.006905541604757309,-0.041280835545808074
1772660826215217000,11.238216796875,-0.03588737900443375,-0.0265823019772768,-0.03016249855160713
1772660826225254700,11.248254638671876,-0.023753800553083418,0.014215572357177733,-0.016244301705807446
1772660826235293000,11.25829296875,-0.023434651601314544,0.021554244682192802,-0.006699643769115209
1772660826245330400,11.268330322265625,-0.026255554240942,0.03640402328968048,-0.01333294430375099
1772660826255369500,11.278369384765625,-0.0077519293010234825,0.013650339689850806,0.023649463395774364
1772660826265407200,11.2884072265625,-0.040312209709361196,-0.013021978658437728,0.022554800026863813
1772660826275445500,11.298445556640624,-0.060250178301334376,-0.016061492484807968,0.0026921616934239864
1772660826285483300,11.308483154296875,-0.007128755901381373,-0.015948679760098457,-0.012684271136671303
1772660826295521500,11.318521484375,0.005418590982630848,-0.017505846074223518,-0.022746669337153434
1772660826305560300,11.328560302734376,-0.01266527417525649,0.00860123960673809,-0.040212329531461
1772660826315598600,11.3385986328125,0.019285788293555376,-0.015281155762076377,-0.049287470260262485
1772660826325636400,11.34863623046875,0.006849427503347397,0.0036310499787330624,-0.044334085636585946
1772660826335675400,11.35867529296875,-0.005420782939717173,0.016833645901083945,-0.024678514182567595
1772660826345713400,11.36871337890625,0.006786372204497456,0.0025268881291151046,-0.025639906560629606
1772660826355751400,11.37875146484375,-0.06253090964965521,-0.015668693774938583,-0.034984365750104184
1772660826365789400,11.38878955078125,-0.1027519339442253,-0.01670797369480133,-0.048641573572158814
1772660826375828500,11.398828369140626,-0.09494155245423316,0.012605214551091194,-0.03159676913842559
1772660826385866500,11.408866455078124,-0.030757468770071864,0.05103694427609443,-0.008004442757368087
1772660826395904500,11.418904541015625,-0.005612579184770584,0.05492109223306179,0.004472176977992058
1772660826405942500,11.428942626953125,-0.02057860458306968,0.04687047224640846,-0.019792349576205015
1772660826415981600,11.438981689453126,-0.057917862896248694,0.0014274024546146393,-0.02352919801697135
1772660826426019300,11.449019287109374,-0.040065541471913456,-0.01826689357459545,-0.030665625768154858
1772660826436057300,11.459057373046875,-0.03141578654833138,-0.011922492983937263,-0.04620718603208661
1772660826446095400,11.469095458984375,-0.0014496873516589403,-0.026944705548882484,-0.02396086743250489
1772660826456134400,11.479134521484376,0.021932430344820023,-0.01035889692902565,0.021073329297453165
1772660826466172400,11.48917236328125,0.03928337811827659,0.015074235013127326,0.028801877722889183
1772660826476210400,11.49921044921875,-0.09027122255563735,0.029225509962439535,0.021920447646081448
1772660826486248400,11.50924853515625,-0.16228073916845023,0.04790741407871246,0.07481500248759984
1772660826496287200,11.519287353515624,-0.05713935280442237,0.018948446097970008,0.04757131399214268
1772660826506325500,11.529325439453125,-0.046727848905324935,-0.010775076514482498,-0.0048683366887271404
1772660826516363300,11.53936328125,-0.158961896944046,0.01039630632996559,-0.007761720042675733
1772660826526401500,11.549401611328125,-0.1068085158586502,0.04983750535845756,-0.012700053227692841
1772660826536440300,11.5594404296875,0.056327963356301185,0.04668167167603969,-0.010384031370282173
1772660826546478600,11.569478515625,-0.03150463387556374,0.07844985185861587,0.02508300333023071
1772660826556516400,11.579516357421875,-0.05677219999246299,0.11675941650867462,0.027505846562981603
1772660826566554600,11.5895546875,0.011751301135495305,0.1074661029845476,0.001734276446700096
1772660826576593400,11.599593505859374,0.07629296608567238,0.026344986090064047,-0.0385880893304944
1772660826586631400,11.60963134765625,0.14791918246932326,-0.007463760009407997,-0.0335175080679357
1772660826596669400,11.61966943359375,-0.014184008175134658,-0.04554886825382709,-0.04220160365253687
1772660826606707500,11.62970751953125,-0.19898272249139845,-0.06842530145049094,-0.03707154728770256
1772660826616746500,11.63974658203125,-0.10441906343884766,-0.025042671319842336,0.011160276439785956
1772660826626784300,11.6497841796875,0.009062427377700804,0.026964579293131827,0.034708909809589385
1772660826636822500,11.659822509765625,-0.03733341309428215,0.04680734388232231,0.012674480395019054
1772660826646860300,11.6698603515625,-0.13267010234594345,0.044753918483853336,-0.015221388398855923
1772660826656899300,11.6798994140625,-0.1735457911569625,0.02970890956521034,0.001538607744127512
1772660826666937300,11.689937255859375,-0.11154073201231658,0.028334114080667494,0.02346168573871255
1772660826676975600,11.6999755859375,-0.01093406646847725,0.009884849676489829,0.01973711225762963
1772660826687013400,11.710013427734374,0.04152553102187812,-0.009926350730657577,0.007574088516086339
1772660826697052400,11.720052490234375,0.046684521220251914,-0.00920855785012245,0.06769844848066568
1772660826707090400,11.73009033203125,-0.017084551922231912,-0.004693126252293587,0.05173398662954569
1772660826717128400,11.74012841796875,-0.06999072413630783,-0.01075578729212284,0.012679594961553811
1772660826727166500,11.75016650390625,-0.08873751018233597,0.0014361702829599379,-0.01542334071174264
1772660826737205500,11.76020556640625,-0.04626381159014999,0.016625556108355522,-0.013455986161530016
1772660826747243500,11.770243408203125,-0.018822920022159812,0.041269583499431606,-0.007977262489497662
1772660826757281500,11.780281494140626,-0.014892521770671008,0.06025953065156936,-0.018136691323667763
1772660826767319600,11.790319580078124,-0.011357333381846546,0.028506548038125037,-0.007934738522022962
1772660826777358600,11.800358642578125,-0.028500045232102273,-0.01670095943212509,0.03387655063867569
1772660826787396400,11.810396240234375,-0.07285948450565338,-0.03852817583680153,0.01481003111898899
1772660826797434400,11.820434326171876,-0.12964929322004318,-0.04260404697358608,-0.001923369278013706
1772660826807472400,11.830472412109375,0.12478249090127647,-0.03966799352169036,-0.03844663503319025
1772660826817511400,11.840511474609375,-0.07546287193708122,0.0031260230660438535,-0.08973799246177076
1772660826827549400,11.850549560546876,-0.2369137361526489,0.08457564126253128,-0.10288871206641197
1772660826837587500,11.86058740234375,-0.09192067026309668,0.09938976403474807,-0.05251826887503266
1772660826847625500,11.87062548828125,-0.05243650887571275,0.08706628903448581,-0.0371447586543858
1772660826857664300,11.880664306640625,-0.05024199450612068,0.034138416445255275,-0.019569646736234424
1772660826867702500,11.89070263671875,-0.03200849174447357,-0.044562779825925825,0.0025150515608489514
1772660826877740300,11.900740234375,0.05406703268699348,-0.06664192516505718,0.034952070915699004
1772660826887778600,11.910778564453125,0.06974624785594642,-0.06196399648189544,0.022975801917910574
1772660826897817300,11.9208173828125,0.015250103036686778,-0.03234334972202778,-0.03142448131144047
1772660826907855600,11.930855712890626,-0.058741015847399825,-0.01601999143064022,-0.03322320129647851
1772660826917893400,11.940893310546874,-0.07107793485112487,0.02319908927977085,-0.029446751497685907
1772660826927931600,11.950931640625,-0.06684015115089714,0.031686347118020056,-0.05775149335339665
1772660826937970400,11.960970458984375,-0.04519530557580292,0.03609305764436722,-0.07400017897337674
1772660826948008400,11.971008544921874,-0.050023456384614105,0.010153729745745658,-0.059277826137840745
1772660826958046500,11.98104638671875,-0.032071693173795934,-0.0020627777487039565,0.002129997766017914
1772660826968084200,11.991084228515625,-0.033889483185485,-0.01566401759982109,0.023999445877224204
1772660826978123500,12.00112353515625,-0.02514035954065621,-0.04395078540742397,0.004152005112916231
1772660826988161300,12.011161376953124,-0.02480257895365357,-0.0540010547786951,0.007821487405896187
1772660826998199600,12.021199462890625,-0.0623754998922348,-0.030115152278542518,-0.0065597969070076935
1772660827008237300,12.0312373046875,-0.05651398744769394,0.0012625672817230223,-0.04639467142820358
1772660827018276400,12.0412763671875,-0.05657945389933884,0.007210077509284019,-0.09907251477912067
1772660827028314400,12.051314453125,-0.07039280213117599,0.04730477201044559,-0.062141983397305006
1772660827038352400,12.061352294921875,-0.058390302713587874,0.06231412509381771,-0.058617462532967325
1772660827048390400,12.071390380859375,-0.058732759475708,0.0356406377017498,-0.06036532911360264
1772660827058429400,12.081429443359376,-0.07488317235298454,0.038324762219190595,-0.0490060229703784
1772660827068467500,12.091467529296875,-0.07860891487784684,0.03398877884149551,-0.02573620654195547
1772660827078505500,12.10150537109375,-0.06981529450416564,0.006025251638889313,-0.03361117770075798
1772660827088543500,12.11154345703125,-0.0916413418650627,-0.007584171518683433,-0.01799596767872572
1772660827098582500,12.12158251953125,-0.08107793533988296,0.031193010643124578,-0.023785364735126494
1772660827108620300,12.131620361328125,-0.05851648637652397,0.01996492966413498,-0.019066519519686697
1772660827118658600,12.141658447265625,-0.0569113162022084,-0.031243279525637626,-0.024558541064709425
1772660827128696300,12.1516962890625,-0.029456469174101947,-0.02423427754640579,-0.028173516691476105
