time,seconds_elapsed,z,y,x
1772660781159235000,0.071235107421875,-0.9372188907921314,-0.12583236528038977,0.3316833295734599
1772660781169273000,0.081273193359375,-0.881780496686697,-0.22459727541506289,0.47876452684868126
1772660781179311900,0.091311767578125,-0.8836047895044088,-0.14361527473032473,0.3310086451822892
1772660781189350100,0.10135009765625,-0.9568903904676437,-0.07730944965183735,-0.1075153489537537
1772660781199388000,0.111387939453125,-1.173038401967287,0.16176994010210036,-0.10293474316522479
1772660781209426400,0.121426513671875,-1.3694950400471686,0.7407371182709932,-0.025944515530392526
1772660781219464400,0.13146435546875,-1.9891975487083196,0.7891016284674406,-0.12091872814521193
1772660781229503700,0.141503662109375,-2.4611796854078767,0.2855775215566158,-0.34297950735259797
1772660781239541500,0.15154150390625,-2.445422144305706,0.6609381898909806,0.20299013150185347
1772660781249579500,0.16157958984375,-2.777850264364481,1.0356482853621243,0.004073679179698229
1772660781259617500,0.171617431640625,-2.709654095494747,1.0370283415436745,-0.5464154463931917
1772660781269656300,0.18165625,-1.724863890710473,1.2299234877496956,-0.7176821867022662
1772660781279694600,0.191694580078125,-1.2590379385530948,1.0402455500245094,-0.49904093361478297
1772660781289732400,0.201732421875,-0.829261789420247,0.6119803899765014,-0.00021937837172299621
1772660781299770600,0.2117705078125,-1.1725246072262525,0.5180103129029273,0.2242731945598498
1772660781309808400,0.221808349609375,-1.8663889151632784,0.8298252685219049,0.7575872769154608
1772660781319847700,0.23184765625,-1.6171622254043816,0.8056628871679306,0.49337731836251913
1772660781329885400,0.241885498046875,-1.4416279638439415,0.5613415051072835,0.24526903817430137
1772660781339923700,0.251923828125,-1.1299427720844746,0.2882581389427185,-0.06976202994696795
1772660781349961500,0.26196142578125,-0.708928021556139,0.14931670124232768,-0.5112915991071612
1772660781360000500,0.27200048828125,-0.4721323588252067,0.9789157597929239,0.19499854822605847
1772660781370038500,0.28203857421875,-0.45669279763102527,1.1568851395457982,-0.5335375158479437
1772660781380076300,0.292076171875,-0.6710697078049183,1.2858347600638866,-0.8073192030075937
1772660781390114600,0.302114501953125,-0.35434243022501466,1.4715239204138517,-0.794162418988347
1772660781400153600,0.312153564453125,-0.3197241213083267,1.4459960959255695,-0.6632743046883494
1772660781410191600,0.322191650390625,-0.277787013810873,1.6548977895587682,-0.5223081562273204
1772660781420229400,0.3322294921875,-0.5289914333835244,1.4171628001511096,-0.7608169795516878
1772660781430267600,0.342267578125,-0.8043056273400783,1.468061797261238,-1.502978504602611
1772660781440305400,0.352305419921875,-0.6808227477952837,1.5565502280533312,-0.5250478103242814
1772660781450344400,0.362344482421875,-1.6233075962916015,1.2534487402439116,-0.5060869431361555
1772660781460382500,0.372382568359375,-1.4318062425315379,2.244493913769722,-1.610119321155548
1772660781470420500,0.38242041015625,-0.4544353740930557,3.437797689652443,-1.459238439336419
1772660781480458500,0.39245849609375,-0.4456067554712295,3.8210903200298545,-0.699921708279848
1772660781490497500,0.40249755859375,-0.5765361516296863,3.8016198958843943,-0.21207082518860695
1772660781500535600,0.41253564453125,-0.42430195550546046,3.0928900272488593,0.4599805871300399
1772660781510573600,0.422573486328125,-0.10213230420853942,2.4604268212139604,1.7755670729875563
1772660781520611600,0.432611572265625,-1.3489011648297309,2.7565876961052416,4.286526980608701
1772660781530649300,0.4426494140625,0.48083121358752245,2.056293647381663,4.196433452707529
1772660781540688600,0.452688720703125,-0.8502163146436214,0.7344529234349727,4.785044073012471
1772660781550726400,0.462726318359375,-2.322130111157894,0.09987900885641575,3.9239755249649284
1772660781560764700,0.4727646484375,-4.083810113090276,0.2645779881477356,2.858711269018054
1772660781570802400,0.482802490234375,-3.229413297891617,2.4723142428845164,1.3218025838933884
1772660781580841500,0.492841552734375,0.38484482825547456,3.983882588917017,-0.5102204627443104
1772660781590879500,0.50287939453125,11.16340129380822,2.9026527020752426,-5.687610752618313
1772660781600917500,0.51291748046875,20.64802064912319,0.03418810080587864,-9.777456638741493
1772660781610955500,0.52295556640625,14.570921918618678,-0.9949439345300197,-4.498744959183037
1772660781620993500,0.53299365234375,7.10216658514142,-1.2563637509077787,-1.2261994987905025
1772660781631032600,0.543032470703125,-3.338623029673099,-2.2502748352587223,6.40098055601418
1772660781641070600,0.553070556640625,-3.2539173322901127,-4.084537258321046,8.312713756769895
1772660781651108600,0.563108642578125,-0.769392280999571,-0.711982732951641,3.448579195907712
1772660781661146400,0.573146484375,-1.4564835876703262,2.6249837616860865,1.0224182169109581
1772660781671185400,0.583185302734375,-0.9736521401762962,2.015398157891631,-1.3323729316160082
1772660781681223700,0.5932236328125,-0.8065551598325371,0.5597498520016669,-1.3328364574745297
1772660781691261400,0.603261474609375,-1.225913375325501,-0.5077513692170381,-0.6642920303635299
1772660781701299500,0.613299560546875,-0.9038568655468523,-1.3407166893303393,-1.247387686639279
1772660781711338500,0.62333837890625,0.19875994658619164,-1.4282313066542147,-1.9539216526657341
1772660781721376500,0.63337646484375,0.9913467868208885,-1.4645400528758763,-2.2787441200263796
1772660781731414500,0.64341455078125,0.805327225472778,-1.3060545412719249,-1.8154048701182006
1772660781741452500,0.65345263671875,0.5573334385097026,-0.659822337603569,-1.215709668958187
1772660781751490600,0.663490478515625,0.5189069694817066,-0.1737988160699606,-1.203823708592355
1772660781761529300,0.673529296875,0.44856312105879187,-0.10645078846216201,-1.428148889067769
1772660781771567600,0.683567626953125,-0.20058453166484833,-0.14687339974343777,-1.3111077330082654
1772660781781605400,0.69360546875,-0.9399977078557014,-0.26498423086106776,-0.2722398280125111
1772660781791643600,0.7036435546875,-0.9042134238995612,-0.3405412838876247,0.27658892660010603
1772660781801682400,0.713682373046875,-0.6024047523796559,-0.43851533590555186,-0.08002860895004123
1772660781811720700,0.723720703125,0.10048661936074495,-0.32771745814979075,0.2537106302399188
1772660781821758500,0.733758544921875,1.1495473440036177,-0.2273240700304508,0.5207039359010756
1772660781831796500,0.74379638671875,1.1134627619266508,-0.14519991357326506,0.7174363952476531
1772660781841834500,0.75383447265625,0.7290816056601703,0.13816928428411482,0.9117827631752937
1772660781851873500,0.76387353515625,0.276744519020617,0.4604354912906885,1.280143124293536
1772660781861911600,0.77391162109375,-0.4655050496399402,0.6217202782243489,1.5190300602152942
1772660781871949300,0.78394921875,-0.6538217820145189,0.9452508060783147,1.4613723826251923
1772660781881987600,0.793987548828125,-0.5557914697647094,1.0716764610767364,0.5099207856779918
1772660781892026400,0.8040263671875,-0.07352350137233733,0.3197171070456505,-1.0356867907416074
1772660781902064600,0.814064697265625,0.08830284509211778,-0.10782499942481517,-0.9161390586886554
1772660781912102400,0.824102294921875,-0.6072454704090953,0.12030863342285156,0.7087510575540363
1772660781922140700,0.834140625,-1.6133181171968578,0.2909697359889746,2.303905741550773
1772660781932179500,0.844179443359375,-2.494424367883801,0.053148821863532064,3.3231063115894792
1772660781942217500,0.854217529296875,-2.4816914352998136,-0.2726636794477701,3.3954432335257527
1772660781952255500,0.86425537109375,-1.5435934235855937,-0.49076282501518725,2.4329512236587703
1772660781962293500,0.87429345703125,-0.01612125984802842,-0.6839858880013227,1.234113925176859
1772660781972331500,0.88433154296875,1.2828633430376648,-0.8429799336493015,-0.26831717467606064
1772660781982370600,0.89437060546875,1.9546260015428065,-0.7942991971105337,-1.8847310659311711
1772660781992408600,0.90440869140625,1.9853356125831603,0.25998423061668874,-2.4498630493626
1772660782002446300,0.9144462890625,1.513328195311874,1.1192682333350181,-2.3843394607029853
1772660782012484600,0.924484619140625,0.7946355894580482,0.9579039514243602,-1.701408634712547
1772660782022523400,0.9345234375,0.00668546911329031,0.3144675159543753,-0.8827236958209425
1772660782032561700,0.944561767578125,-0.6220600315727293,-0.1752536910533905,-0.9934073726125061
1772660782042599400,0.954599365234375,-0.7487398074626922,-0.10873159287571907,-1.3895176912479101
1772660782052637700,0.9646376953125,-0.6988298213899136,0.10935820034146308,-1.6800817690454422
1772660782062676500,0.974676513671875,-0.3565912320651114,0.3459235614478588,-2.072257670841366
1772660782072714500,0.984714599609375,-0.07030746193528174,0.49128012688755984,-1.7607975200094281
1772660782082752500,0.99475244140625,-0.35434915222674607,0.5034469500213861,-1.1746956676550209
1772660782092790500,1.00479052734375,0.7113467731356621,0.9242477655380964,-0.07440444892533123
1772660782102828500,1.01482861328125,1.054194872660935,0.6511012710094451,0.027850129956007
1772660782112867600,1.02486767578125,0.8012816033437847,0.05729191301763057,0.14235040589366107
1772660782122905600,1.034905517578125,0.21843217691406605,-0.31172318568229673,0.7136509584248065
1772660782132943600,1.044943603515625,-0.4378653475642204,-0.57097150323987,0.6600649141877889
1772660782142981600,1.054981689453125,-0.544477464067936,-0.8652502176463603,0.32038053939044475
1772660782153019400,1.065019287109375,-1.095424124149978,-1.3188503099590538,-0.3956546838223934
1772660782163058400,1.075058349609375,-1.229587387663126,-1.6150164455473421,-0.8734696913938969
1772660782173096400,1.085096435546875,-0.1224962065950036,-1.106287755730748,-0.06598099530460312
1772660782183134500,1.095134521484375,0.4863236735239625,-0.42781215558350083,0.9098224228877574
1772660782193172500,1.10517236328125,-0.19973697492480277,0.3911398367464542,0.9374540147222578
1772660782203211300,1.115211181640625,-0.31347339035049077,0.9792144504785537,0.5877748270679265
1772660782213249500,1.12524951171875,0.20114917981028554,1.3860732498824595,0.3794646695870906
1772660782223287300,1.135287353515625,0.3184893188163638,1.7853958085626362,-0.03553105811374262
1772660782233325300,1.1453251953125,-0.16957915254831313,1.398560391011834,-0.3389791126048192
1772660782243364400,1.1553642578125,-0.35201106466799975,0.9056126231729984,-0.5793051048863679
1772660782253402400,1.16540234375,-0.17858911908641456,0.36507892829477784,-0.9192886087607591
1772660782263440400,1.1754404296875,0.04327697779908776,-0.14543781398236752,-0.8765713837362825
1772660782273478100,1.18547802734375,0.1194879646897316,-0.30617607294917104,-0.11310118626207112
1772660782283516400,1.195516357421875,0.02149637701511383,-0.3306073343724012,0.3641409898575395
1772660782293555200,1.20555517578125,0.266172709993273,-0.20669746158719063,0.4735330924686044
1772660782303593500,1.215593505859375,0.48088981190696356,-0.036060324418544766,1.004604693127051
1772660782313631200,1.22563134765625,0.3841255740702152,0.15267127236723899,1.574355933856964
1772660782323669500,1.23566943359375,-0.20189985204711555,-0.11289806490540504,1.4014213334009051
1772660782333708300,1.245708251953125,-1.1892238130927084,-0.47139819933176036,0.398817349104397
1772660782343746300,1.255746337890625,-0.9796038881875574,-0.38641865344345566,-0.5621151198282838
1772660782353784300,1.265784423828125,-0.2766378437757492,-0.3530687570273876,-0.3876495104126632
1772660782363822300,1.275822265625,-0.20941548837423324,-0.34479134254753585,0.1713648121223785
1772660782373861400,1.285861328125,-0.5339946484982967,-0.25362521697878837,0.20906240062024442
1772660782383899400,1.2958994140625,-0.682229545853287,-0.2779272990643978,-0.07464838634957559
1772660782393937400,1.3059375,-0.5983307809390127,-0.15852935074567795,-0.15718864019382744
1772660782403975200,1.31597509765625,-0.38704365347400305,-0.09776303961575031,-0.2272137963226996
1772660782414013400,1.326013427734375,-0.20737550697922705,0.061629649960994716,-0.2044980883793905
1772660782424052200,1.33605224609375,-0.02247837378978729,0.17484686381816864,-0.04460270997751504
1772660782434090500,1.346090576171875,0.043661593202501535,0.1689145511597395,-0.09118734188671224
1772660782444128300,1.356128173828125,-0.046063685908168554,0.28547639926970003,-0.09779882331518455
1772660782454166500,1.36616650390625,0.05505494774580001,0.20359715748429297,0.052913223009370264
1772660782464205300,1.376205322265625,0.13548515976667402,0.02844575776159763,-0.005479458890971727
1772660782474243300,1.386243408203125,0.23104747446775434,-0.025170681613683698,-0.17691143166515974
1772660782484281300,1.39628125,-0.038217210191488264,0.06677578067779541,-0.3118194125983864
1772660782494319400,1.4063193359375,-0.3955168827868998,0.13029051373302936,-0.38553401609603316
1772660782504357400,1.416357421875,-0.33284079251289367,0.05955927342772484,-0.1547431832704693
1772660782514396400,1.426396484375,-0.1265055883668363,-0.07012742919325828,-0.1020759435119573
1772660782524434400,1.436434326171875,-0.06106836281642317,-0.15633797818124293,0.04929307801714167
1772660782534472400,1.446472412109375,0.01601136973276734,-0.12001695699989795,0.24708902014307677
1772660782544510500,1.456510498046875,-0.011605243728309868,-0.06817395703792571,0.25479336570901795
1772660782554549500,1.466549560546875,-0.12890110520124434,-0.05826631100773811,0.048493543403595685
1772660782564587300,1.476587158203125,-0.1634976406775415,-0.007117723050713539,-0.05262103512976318
1772660782574625300,1.486625244140625,-0.12599018619060515,-0.03474982634186744,-0.053069651113520376
1772660782584663300,1.496663330078125,-0.13591653692126274,-0.010957447344064711,-0.11683650946603157
1772660782594702300,1.506702392578125,-0.43164603465795515,0.010825345396995544,-0.11193874575342051
1772660782604740400,1.516740234375,-0.5774350001655518,0.048454526567459105,-0.08830804185704327
1772660782614778400,1.5267783203125,-0.22946590436473488,0.010412672942876814,-0.058406760658044364
1772660782624816400,1.53681640625,0.041835108427703376,-0.05865267997682094,0.06406838488262147
1772660782634854400,1.5468544921875,-0.1633667077742517,-0.040398645883798594,0.027517856661183757
1772660782644893400,1.5568935546875,-0.14212532843351364,0.02411152794957161,-0.04401056190379895
1772660782654931200,1.56693115234375,0.02933160068541765,0.08151508464813231,-0.0081537150349468
1772660782664969500,1.576969482421875,0.03848740543499589,0.1406014798671007,-0.00732511872369796
1772660782675007200,1.58700732421875,-0.15041837887391446,0.17650632146298884,-0.07197326712249778
1772660782685046500,1.597046630859375,-0.14686448578462002,0.11848726321458816,-0.17550563825415447
1772660782695084300,1.607084228515625,-0.03714154378399253,0.030184125861525534,-0.12018830411196686
1772660782705122600,1.61712255859375,-0.014613047242164612,-0.0051864627271890635,-0.11426768189133145
1772660782715160300,1.627160400390625,-0.12115750533714889,0.0164390936255455,-0.12093678439171053
1772660782725198300,1.6371982421875,-0.26895488805770873,-0.030780922710895536,-0.00843924484490417
1772660782735237400,1.6472373046875,-0.23376082507967946,-0.07548223422467708,0.059667400844162326
1772660782745275100,1.657275146484375,-0.16617606610655783,-0.017586510095000268,0.02160057717510499
1772660782755313400,1.6673134765625,-0.20169395421147346,-0.0009767360776662827,-0.061023117168899625
1772660782765351200,1.67735107421875,-0.2660788942299783,-0.04446750275790691,-0.11784140305910258
1772660782775390500,1.687390380859375,-0.3179633952461183,-0.033791794964671135,-0.15321260356917046
1772660782785428200,1.69742822265625,-0.2437922436200082,-0.03874970963299274,-0.15750554238958284
1772660782795466500,1.707466552734375,-0.1535118148446083,-0.05055120658576488,-0.06261888932720758
1772660782805504300,1.717504150390625,-0.05801394368186593,0.0031979192584753032,-0.09079358419561757
1772660782815543300,1.727543212890625,-0.026324527823925015,0.07100012037456035,-0.07041800963766873
1772660782825581300,1.737581298828125,-0.05977671557068824,0.10211246699690818,-0.047664919692883265
1772660782835619300,1.747619384765625,-0.05988908990398049,0.03547755609452724,-0.03759294081330299
1772660782845657300,1.7576572265625,-0.07079027701616286,-0.04049275390803814,-0.06760608488894067
1772660782855695400,1.7676953125,-0.17329554272294043,-0.07269055767953396,-0.09089244146021082
1772660782865734400,1.777734375,-0.261048644977808,-0.08895078760683536,-0.15874412600751966
1772660782875772200,1.787772216796875,-0.19918065621629355,-0.12242226457595824,-0.11951125423377379
1772660782885810400,1.797810546875,-0.1911832277216017,-0.1247206046462059,-0.07627025193036534
1772660782895848200,1.80784814453125,-0.26714988446235655,-0.0944692587673664,-0.1697022492050193
1772660782905887500,1.817887451171875,-0.29112682624682784,-0.03763736447691917,-0.07868282949742861
1772660782915925200,1.82792529296875,-0.018562077128887175,-0.017100187882781028,0.0619166410756763
1772660782925963500,1.837963623046875,-0.011780308034271,-0.028838556471467016,-0.024388271664874627
1772660782936001300,1.848001220703125,-0.19815628160461782,-0.037270284730195995,-0.05917832955243066
1772660782946039600,1.85803955078125,-0.07707856350541115,-0.0298632233440876,0.05178524189274758
1772660782956078300,1.868078369140625,-0.09051438366174697,0.01471943022608757,0.09036371401152574
1772660782966116400,1.878116455078125,-0.072300681579113,0.039422494328022,0.05991653503333218
1772660782976154400,1.888154296875,-0.08897709109187125,0.043992870983481404,-0.06244929578080773
1772660782986192400,1.8981923828125,-0.09073884006738663,0.04690145190656185,-0.04484625467611476
1772660782996231400,1.9082314453125,-0.2198831063747406,0.03061082684099674,-0.05928492259890772
1772660783006269400,1.91826953125,-0.22371756997108458,-0.001991466078162193,-0.11657145618852227
1772660783016307500,1.928307373046875,-0.12097016607150435,0.009587912556529044,-0.0952536871433258
1772660783026345200,1.93834521484375,-0.1373778416454792,0.008098550781607627,-0.08032764669554307
1772660783036384300,1.94838427734375,-0.11409998804107307,0.027871172744035718,-0.11478082817839458
1772660783046422300,1.95842236328125,-0.07778364303484558,0.06534428656995296,-0.034490910544199865
1772660783056460300,1.968460205078125,-0.15079831810221075,0.026211130577325818,-0.008536914799408987
1772660783066498300,1.978498291015625,-0.16754837737306952,0.0011415712505578994,-0.030702615043986588
1772660783076536300,1.988536376953125,-0.12182488320469856,0.007284311789274215,0.006245954318018629
1772660783086575400,1.998575439453125,-0.044335839202255006,0.023742110115289688,0.057027608658792445
1772660783096613400,2.00861328125,-0.02398644026517868,0.03593114508092403,0.08912203425420448
1772660783106651400,2.0186513671875,-0.05098652926310897,0.05438859279155731,0.05237255852771923
1772660783116689400,2.028689453125,-0.1115489883840084,0.07731237226128577,-0.031983603898389265
1772660783126728200,2.038728271484375,-0.20795871369466185,0.06731120272874831,-0.07538788873841985
1772660783136766500,2.048766357421875,-0.25200726038813587,0.05087853884398937,-0.1353376775873825
1772660783146804200,2.05880419921875,-0.17854688737988472,0.02916998038291931,-0.11145794909968972
1772660783156842500,2.068842529296875,-0.12315759311318397,0.011165537136793136,-0.024208869110513478
1772660783166880300,2.07888037109375,-0.1421487093091011,0.004905307698249817,0.03053845572452992
1772660783176919600,2.08891943359375,-0.18118994923457502,-0.012544424274563789,-0.017823588520195333
1772660783186957300,2.098957275390625,-0.13650558885559438,-0.054714756006002424,-0.027609617464710027
1772660783196995300,2.108995361328125,-0.05852949198856949,-0.057930210921168325,-0.0208565264753066
1772660783207033300,2.119033447265625,-0.07298705640807747,-0.0750672236829996,0.047465131937619295
1772660783217072400,2.129072265625,-0.05772884313017129,-0.08545242409706115,0.008268847580906003
1772660783227110400,2.1391103515625,-0.07964943690672516,-0.07698328643739223,0.008995207360386849
1772660783237148400,2.1491484375,-0.1321899176135659,-0.07112754614651202,-0.01820661475472152
1772660783247186400,2.1591865234375,-0.14238354097828268,-0.04529810836315155,-0.03967018547877669
1772660783257225500,2.1692255859375,-0.1401240716136992,-0.014829320341348647,-0.02703123305486515
1772660783267263500,2.179263427734375,-0.06876914645209908,0.04232990620732307,-0.027207649067696182
1772660783277301500,2.189301513671875,-0.09395619467869401,0.059251230391860005,0.005601582866720855
1772660783287339500,2.199339599609375,-0.12168211373314261,0.07666530652940273,0.013343100371584295
1772660783297377500,2.20937744140625,-0.12406097169369458,0.024848610052466392,0.03955558265578001
1772660783307416300,2.219416259765625,-0.12787351571917532,0.032167408633232114,0.03782463067732751
1772660783317454600,2.22945458984375,-0.13638883060812948,0.022326982620358465,0.03134527859538793
1772660783327492400,2.239492431640625,-0.1048047748208046,0.04703063124418259,0.001016940223891288
1772660783337530400,2.2495302734375,-0.09136530140265822,0.07749766570031642,0.015359737423621117
1772660783347569400,2.2595693359375,-0.1383668526828289,0.09286007000505923,0.003737195500638336
1772660783357607400,2.269607421875,-0.0634333383820951,0.04441255770027637,-0.014701163917034863
1772660783367645400,2.2796455078125,-0.023457886346429584,-0.02783843951821327,-0.015234887201245873
1772660783377683500,2.289683349609375,-0.05344152119979262,-0.011108253991603851,-0.05686090118922293
1772660783387721500,2.299721435546875,-0.099541885856539,0.020299276185035704,0.03505012446269393
1772660783397760500,2.309760498046875,-0.09321604383587836,-0.0015156652599573135,0.05079937266055494
1772660783407798500,2.319798583984375,-0.07116933946162461,0.024559856238961217,0.014418437985517084
1772660783417836500,2.32983642578125,-0.16326178609505296,0.009067688074707984,-0.0012332498556934296
1772660783427874600,2.33987451171875,-0.22130948591604827,0.006888005948066711,-0.05909814045568928
1772660783437913300,2.349913330078125,-0.18431363421306013,0.03108136696219444,-0.027885256068315354
1772660783447951600,2.35995166015625,-0.16177008623257277,0.011981529694795608,-0.007259195614326745
1772660783457989400,2.3699892578125,-0.14369433131590484,0.03386544472277164,-0.02506572340186685
1772660783468027600,2.380027587890625,-0.1484041164420545,0.027050504010915754,-0.01647432933570817
1772660783478066400,2.39006640625,-0.07992635415196418,0.027643209207057953,-0.05083404211513698
1772660783488104700,2.400104736328125,-0.04747939792498946,0.014819383469223976,0.022866441525612024
1772660783498142500,2.410142578125,-0.08243965214714408,-0.011142156261205672,0.028824162619933483
1772660783508180500,2.420180419921875,-0.10085223780274391,-0.0042120647370815275,-0.020322766658477483
1772660783518218500,2.430218505859375,-0.08964096182808279,0.003735679396986961,0.06259011075729504
1772660783528257300,2.44025732421875,-0.08877119325622916,-0.006086041915416717,-0.004190473959781229
1772660783538295600,2.450295654296875,-0.05734145124778151,0.00899988353550434,-0.06733894925219938
1772660783548333300,2.460333251953125,-0.09993461150117218,-0.03860825533568859,-0.01948414214355871
1772660783558371600,2.47037158203125,-0.1963421448547393,-0.05106266323924064,-0.05520948072038591
1772660783568410400,2.480410400390625,-0.15197569131851196,-0.0360240840613842,-0.014519194946251809
1772660783578448600,2.49044873046875,-0.041330446841195224,-0.04439326847791671,0.03166006189929321
1772660783588486400,2.500486328125,-0.001129296290874481,-0.01872398969233036,0.0025873678783886133
1772660783598524700,2.510524658203125,-0.18475933215394616,0.04833411505818367,-0.006607471973635256
1772660783608562400,2.5205625,-0.32407880938649175,0.13150339665412902,-0.003109236328024417
1772660783618601500,2.5306015625,-0.09980126744508742,0.09050152418017386,0.06974392803469673
1772660783628639500,2.540639404296875,0.0016974515676498412,0.02263444113433361,0.004600406467542052
1772660783638677500,2.550677490234375,-0.11685279388055204,0.0024187515795230864,-0.01410962776467204
1772660783648715500,2.560715576171875,-0.16055062744021414,0.010844050097465514,0.017728530647885054
1772660783658754600,2.570754638671875,-0.1614798711143434,0.01902151133418083,-0.006925470147933811
1772660783668792600,2.58079248046875,-0.06737900726795196,-0.023007950621843336,-0.008731989846937358
1772660783678830300,2.590830322265625,-0.07815992900133133,-0.045593291917443275,-0.04089053932027891
1772660783688868600,2.60086865234375,-0.16214301119819283,-0.03397708840370178,-0.04065570765109733
1772660783698907400,2.610907470703125,-0.1189351531125605,-0.02201484793126583,-0.012228599791042506
1772660783708945400,2.6209453125,-0.009163038207963109,0.004287468060851097,-0.012072349783405661
1772660783718983400,2.6309833984375,-0.017299582912400364,0.006288286489248275,-0.002561703714169562
1772660783729021400,2.641021484375,-0.12579963205456732,0.027986323556303976,-0.026134485144540667
1772660783739059500,2.6510595703125,-0.20720139252133665,0.04088613713979721,-0.0005892893963493406
1772660783749098500,2.661098388671875,-0.2588674284812063,0.027695231655240057,0.016223843439668414
1772660783759136500,2.671136474609375,-0.3009960399627685,-0.005021043032407761,0.009232596312835812
1772660783769174500,2.681174560546875,-0.19617504465952515,-0.05877367600798607,-0.007677877684123814
1772660783779212500,2.691212646484375,-0.12550985532775522,-0.06719196026325225,0.03356036082897335
1772660783789251600,2.70125146484375,-0.056100145949795836,-0.01045475851893425,0.06692152755772694
1772660783799289300,2.711289306640625,-0.024261238618567584,-0.023814590829610825,0.01841569092813879
1772660783809327400,2.721327392578125,-0.00985372388586402,-0.027314123383164406,-0.049827385823242365
1772660783819365400,2.731365478515625,-0.026983868515491484,0.0034019173979759213,-0.04063455526521429
1772660783829403400,2.7414033203125,-0.0570969749674201,0.0020078326910734174,0.015771953220013527
1772660783839442400,2.7514423828125,-0.11684110344275832,-0.04220072686970234,-0.0021963227341882884
1772660783849480400,2.76148046875,-0.19569675962328908,-0.027211832052469253,-0.05703240356491878
1772660783859518500,2.7715185546875,-0.211701042028144,0.015720131701231002,-0.010859119802433996
1772660783869556500,2.781556396484375,-0.1395651956219226,0.06137070676386356,0.05047103575533256
1772660783879595500,2.791595458984375,-0.20816461153030394,0.06136544606685638,0.04187164104580879
1772660783889633500,2.801633544921875,-0.24811324862428008,0.046886838859319685,0.03366648808456957
1772660783899671600,2.811671630859375,-0.07262362992316485,-0.04306231213510036,-0.008750347487535327
1772660783909709600,2.82170947265625,-0.25056831362619997,-0.021741876208782193,-0.09535137536413966
1772660783919747600,2.83174755859375,-0.18777181184291838,-0.011401683980226516,-0.03640217839246616
1772660783929786400,2.841786376953125,-0.06346607160791755,-0.008966565787792206,0.023796324520558118
1772660783939824600,2.85182470703125,-0.017982231414318085,0.009331891968846321,0.03268584301676601
1772660783949862400,2.8618623046875,-0.0002114507935941219,0.025191724401712415,0.036345260573457924
1772660783959900400,2.871900390625,-0.05665756063684821,0.005309796845912933,0.054537499742954965
1772660783969939500,2.881939453125,-0.08863339222073555,0.011347323444485663,0.032817396974563595
1772660783979977500,2.8919775390625,-0.10402041951008141,0.012393033105134963,0.04858056409992277
1772660783990015500,2.902015380859375,-0.15149886758700012,-0.006319850671291351,0.01536408480517566
1772660784000053500,2.912053466796875,-0.12256496098227798,-0.030726562175154685,-0.023309636982157825
1772660784010092500,2.922092529296875,-0.13830021718740462,-0.023311317482590674,-0.016992343594133853
1772660784020130300,2.93213037109375,-0.1360661745250225,0.04859364277720451,-0.015594605625420808
1772660784030168600,2.94216845703125,-0.11511559482440352,0.06754851861596108,0.05756066522272303
1772660784040206300,2.952206298828125,-0.04995090260505676,0.031366613644361496,0.07359278548257425
1772660784050244600,2.96224462890625,-0.041284634938091036,0.011816110000014304,0.050813985707797105
1772660784060283400,2.972283447265625,-0.06672536566480994,-0.021646599140763282,0.03382206223877147
1772660784070321700,2.98232177734375,-0.08055281548723578,-0.0497094950646162,0.018585384939238427
1772660784080359400,2.992359375,-0.09448314116224646,-0.049320203486084936,0.0020020605374127627
1772660784090397700,3.002397705078125,-0.12868950827717782,-0.04252513651847839,0.006274513692222535
1772660784100436500,3.0124365234375,-0.1561270388443023,-0.004222586131095886,0.0052155244248919186
1772660784110474500,3.022474609375,-0.1455052531953901,0.004087561574578285,0.005820906439516693
1772660784120512500,3.032512451171875,-0.1433213332850486,-0.004758008182048797,-0.03446249730046838
1772660784130550300,3.04255029296875,-0.10625219715014099,-0.003441664886474609,-0.04773121726159006
1772660784140588500,3.052588623046875,-0.0652912412084639,0.022450316739082335,-0.0019963979816064238
1772660784150627300,3.06262744140625,-0.08527136844173074,0.06364215882718563,0.011971172697562723
1772660784160665600,3.07266552734375,-0.12189502583146095,0.05320902761816978,0.04370462862662971
1772660784170703400,3.082703369140625,-0.14545841837897897,0.047585342517495154,0.05644950737673789
1772660784180741600,3.09274169921875,-0.15966434612497687,0.040191725134849546,0.0203019430661574
1772660784190780400,3.102780517578125,-0.1325577280126512,0.02118131971657276,0.026343232524394987
1772660784200818400,3.112818359375,-0.12698036627173423,0.015360650739073752,-0.016335706316307187
1772660784210857000,3.12285693359375,-0.10500219708904623,0.018675474375486372,-0.03272904283767566
1772660784220895000,3.13289501953125,-0.09691825935468078,0.0357756622582674,0.006555467791762202
1772660784230933000,3.14293310546875,-0.06424713898301124,0.03825345054864883,-0.005554382724128663
1772660784240972000,3.152971923828125,-0.08272723691686987,0.03158814744055271,-0.002835716616269201
1772660784251010000,3.163010009765625,-0.12590937603935598,-0.013012041786313057,0.006610778175573795
1772660784261048000,3.173048095703125,-0.11001038063988089,-0.017512860336899756,-0.001260905047599226
1772660784271086000,3.183086181640625,-0.11163885862454771,-0.009911737683415413,0.010745156300254166
1772660784281125000,3.193125,-0.12178250536769628,-0.0030745851397514343,0.031087467909418045
1772660784291163000,3.203162841796875,-0.14372472645416856,0.012219430103898048,0.0026544782978482544
1772660784301201000,3.213200927734375,-0.1286637893140316,-0.0009755670338869094,-0.037142694561462845
1772660784311239000,3.223239013671875,-0.09304185631275176,-0.002245148578286171,-0.009374068876449019
1772660784321278200,3.2332783203125,-0.06367533044442535,-0.0009837503403425216,-0.03139437843412161
1772660784331316000,3.24331591796875,-0.09159107298254966,-0.04292787210047245,-0.02689195244833827
1772660784341354000,3.25335400390625,-0.09480477433204651,-0.015572832185029983,-0.014397066403925417
1772660784351392000,3.26339208984375,-0.12911723216995596,0.028825112468004226,0.01580415672287345
1772660784361430000,3.273429931640625,-0.13516484177112578,0.02118482684791088,0.016616075893957166
1772660784371469000,3.283468994140625,-0.11524535868391395,0.022984569746255873,-0.013760576864983885
1772660784381506800,3.2935068359375,-0.0759866766154766,0.0256891525298357,-0.04589242099449038
1772660784391545000,3.303545166015625,-0.061116439741849896,0.018814006063342093,-0.029579949423298238
1772660784401582800,3.313582763671875,-0.06767126821279526,0.022166239100694655,-0.04511391090266406
1772660784411622100,3.3236220703125,-0.06545709929466247,0.03426175056397915,-0.059409745421819385
1772660784421660000,3.333659912109375,-0.04238236704692244,0.0698778383463621,-0.040927893922291694
1772660784431698200,3.3436982421875,-0.07483867562413216,0.06119944185018539,-0.02588372525386512
1772660784441736000,3.35373583984375,-0.10937822021618485,0.04292787210047245,-0.008937193562835455
1772660784451774000,3.36377392578125,-0.13551307068690657,-0.005945756661891937,0.0015034450992010534
1772660784461813000,3.37381298828125,-0.15407646299004554,-0.01013794765472412,-0.0009998612249270081
1772660784471850800,3.383850830078125,-0.16192644583806395,-0.025843466308712957,-0.025152908494975416
1772660784481889000,3.393888916015625,-0.13678148318752645,0.0021907880425453183,-0.05021868669576943
1772660784491926800,3.4039267578125,-0.12881211174353957,0.014666823256015777,0.00119510980239138
1772660784501966000,3.413966064453125,-0.12456278373599051,0.004320201286673545,-0.04506119433473795
1772660784512003800,3.42400390625,-0.08689034794569014,0.0011824877828359604,-0.06693354678908363
1772660784522042000,3.4340419921875,-0.09423910327330232,0.032167408633232114,-0.038899712562933564
1772660784532079900,3.444079833984375,-0.06083353114724159,0.01278524729311466,-0.03032041079336777
1772660784542118100,3.4541181640625,-0.004727613043785095,0.015507950255274771,-0.05159346391400322
1772660784552157000,3.464156982421875,-0.009385229591280221,0.04633154306411743,-0.026409831487201153
1772660784562195000,3.47419482421875,-0.11165434845462441,0.045344870114326474,-0.039214112274348734
1772660784572233000,3.48423291015625,-0.19697700869217513,0.04579436744749546,-0.07427439280487597
1772660784582271000,3.49427099609375,-0.01628463371619582,0.008465046006441115,-0.014157138434518128
1772660784592310000,3.50431005859375,-0.03962693085893988,-0.02309972055852413,-0.0022128354775719345
1772660784602348000,3.51434814453125,-0.1602864235460758,-0.03572130172252655,-0.03311939386213198
1772660784612386000,3.524385986328125,-0.2700479439914226,0.0183212541103363,-0.013676369180250912
1772660784622423800,3.534423828125,-0.15457666759714483,0.0253840321034193,0.07533621335010975
1772660784632463000,3.544463134765625,0.01711728514805436,-0.01310205815732479,0.034470845003705466
1772660784642500900,3.5545009765625,-0.03939662923440337,0.02787467987537384,-0.018386556165199727
1772660784652539100,3.5645390625,-0.03806055832505226,0.07847498629987239,0.0006302607275545597
1772660784662577000,3.574576904296875,0.035061961030960084,0.09771627786457537,-0.004021693264134228
1772660784672615200,3.584615234375,0.09100757400617003,0.08884148201346397,-0.03531927852658555
1772660784682654000,3.594654052734375,-0.01737549769282341,0.07107493917644024,-0.0539716642874293
1772660784692692000,3.60469189453125,-0.17959098960533737,0.034922844821214674,-0.03655358782820403
1772660784702730000,3.61472998046875,-0.17549100694060324,-0.005653495717048645,0.0024761443225666878
1772660784712768000,3.62476806640625,-0.1293861122392118,-0.050126843693852424,-0.0007467084477655589
1772660784722807000,3.63480712890625,-0.09551073064431548,-0.028998130947351455,-0.03636703401384875
1772660784732845000,3.644844970703125,-0.10324658559337258,0.00018996961414813993,-0.05521653151568025
1772660784742883000,3.654883056640625,-0.12167889886274934,0.007720365118980407,-0.05161717358315363
1772660784752920800,3.6649208984375,-0.0877696149982512,0.044456981363892555,-0.06511884378362447
1772660784762959000,3.674958984375,-0.03668473992720246,0.0552647911041975,-0.02487635657591745
1772660784772998100,3.684998046875,-0.025394115106016395,0.011775193467736244,0.012413783632218837
1772660784783036000,3.695035888671875,0.004519377120584249,-0.0286170226752758,0.03263798528704792
1772660784793074000,3.705073974609375,-0.006606558658182621,-0.0037806875824928283,-0.003381440865527838
1772660784803112000,3.71511181640625,-0.07705182162895798,0.01798106237053871,-0.023166520450729877
1772660784813151000,3.72515087890625,-0.12067439799532294,0.006341477981209755,-0.02906365219792351
1772660784823189000,3.73518896484375,-0.1556030880354345,-0.021856442499160765,-0.035872711158264424
1772660784833227000,3.74522705078125,-0.15580796295776964,-0.026360183659195898,-0.013932846425659954
1772660784843265000,3.75526513671875,-0.12229966110959649,-0.038383214408159255,-0.001581990228127688
1772660784853303800,3.7653037109375,-0.09641118661537766,-0.03559387595057487,-0.017374511312134563
1772660784863342000,3.775342041015625,-0.0460910123065114,-0.008627543091773986,0.024084658208955077
1772660784873379800,3.7853798828125,-0.054063598620891565,0.01949438954293728,0.02248715988444164
1772660784883418000,3.795418212890625,-0.08402385259866714,0.038783611902594564,0.012507453265041112
1772660784893456000,3.805455810546875,-0.1352256320476532,0.09313479529321193,0.048457102117035536
1772660784903495200,3.8154951171875,0.004311579588800668,0.061352586585283274,0.03932979280957952
1772660784913533000,3.825532958984375,-0.1841663346968591,0.06799275525212288,-0.05965655978973954
1772660784923571000,3.835571044921875,-0.20445508948788046,0.03086217125356197,-0.025018139666784553
1772660784933609000,3.84560888671875,-0.05106850845813751,0.022065701335668562,-0.03162066147066653
1772660784943647700,3.855647705078125,-0.03785129948854446,0.030263036316633223,-0.03230608645156026
1772660784953686000,3.86568603515625,-0.030286271061748263,0.015086509972810745,-0.025710834638681263
1772660784963723800,3.875723876953125,0.007446808874607086,0.03836977040469646,-0.005336301260348409
1772660784973762000,3.885761962890625,0.008357640109211206,0.05266717582643032,0.029746720824949443
1772660784983799800,3.8957998046875,-0.03267944980859756,0.046968671923875806,0.029022315540537236
1772660784993839000,3.905839111328125,-0.040294600987434384,0.015131518158316612,0.0013233940908685326
1772660785003876900,3.915876953125,-0.054715632788836954,-0.018325345763564108,-0.01602243911605328
1772660785013915100,3.9259150390625,-0.07912073685750365,-0.017064532047510145,-0.04755390619961545
1772660785023953000,3.935952880859375,-0.06474997393861412,0.01580780998468399,-0.06268982653841376
1772660785033992000,3.945991943359375,-0.09800210906863212,0.05881166993081569,-0.023916790828760713
1772660785044030000,3.956030029296875,-0.12742679486498235,0.060873278635740276,0.004405705879349261
1772660785054068000,3.96606787109375,-0.11019172855615615,0.005243745872378349,0.011450071432907133
1772660785064106000,3.97610595703125,-0.1151344456553459,-0.025463527080416676,0.014174253966100513
1772660785074145000,3.98614501953125,-0.054511488518863914,-0.020907178950309753,0.023042327815480528
1772660785084183000,3.99618310546875,-0.0357189636349678,-0.02904021652340889,0.03767879246585071
1772660785094220800,4.006220703125,-0.07179916179776191,-0.033710546422004696,-0.00540624295771122
1772660785104259000,4.016259033203125,-0.06796367528811097,-0.026375965750217435,-0.022293500475864855
1772660785114296800,4.026296875,-0.052574382976442575,-0.007474281403422356,-0.01670614706389606
1772660785124336000,4.036336181640625,-0.08197101172208786,0.019818214669823645,-0.05411006811112165
1772660785134374000,4.046373779296875,-0.09267477656602859,0.054312020424008366,-0.06110255734696984
1772660785144412200,4.056412109375,-0.059139586710929865,0.09196516699194908,0.007890826315060257
1772660785154450000,4.066449951171875,-0.10118190814852714,0.04428454740643501,-0.0055646301235072314
1772660785164489000,4.076489013671875,-0.16969035783782602,-0.023975334349274634,-0.07751956700487062
1772660785174527000,4.08652685546875,-0.15584975627288222,-0.0669242492377758,-0.042663759537879375
1772660785184565000,4.09656494140625,-0.11969488543868065,-0.006432663396000861,-0.01777123727845028
1772660785194603000,4.10660302734375,-0.10346753486767411,0.038404841718077655,-0.015131207631062715
1772660785204640800,4.116640869140625,-0.07499079744592309,0.04061550350487232,-0.015660930593591183
1772660785214679600,4.126679443359375,-0.09218962339758872,0.04805763620436191,-0.027442352872714397
1772660785224717300,4.13671728515625,-0.07402034497857093,0.029706571477651593,-0.028521526411548256
1772660785234755600,4.146755615234375,-0.04307210287675261,0.007920271605253219,-0.03948697439897805
1772660785244793300,4.15679345703125,-0.02407879472374916,-0.015062544575333594,-0.036449707328621295
1772660785254832400,4.166832275390625,-0.07167275893911719,-0.013693009787797927,-0.02453333355821669
1772660785264870400,4.176870361328125,-0.13132453295588492,0.00601882189810276,-0.024962518755719063
1772660785274908400,4.186908447265625,-0.1896425741508603,-0.002590601015090942,-0.010977156691532581
1772660785284946400,4.196946533203125,-0.18614574501104653,-0.007328735452890396,-0.028390264714695513
1772660785294985500,4.2069853515625,-0.16667305584326386,0.030260113707184788,-0.014952252601273357
1772660785305023500,4.2170234375,-0.14057283829450606,0.03147358115017414,-0.00975820935582742
1772660785315061500,4.2270615234375,-0.09242591637149453,0.024184008663892746,-0.034375367006286975
1772660785325099500,4.237099609375,-0.08743285732455551,0.023373861324787137,-0.012698171797860413
1772660785335137300,4.24713720703125,-0.09138868227824568,0.03367255249917507,-0.014010807032696903
1772660785345176600,4.257176513671875,-0.09772373051866888,0.038459786775708195,-0.016143763940781354
1772660785355214600,4.267214599609375,-0.0962602338373661,0.032440964877605435,-0.017589560568612068
1772660785365252600,4.277252685546875,-0.10174655629396438,-0.014754501539468765,-0.04443235837928951
1772660785375290400,4.287290283203125,-0.1197533376276493,-0.05643149679601192,-0.10207818113481626
1772660785385329400,4.297329345703125,-0.10875015144571662,-0.056764674273133274,-0.10336544446637853
1772660785395367400,4.307367431640625,-0.09898184082098305,-0.00647241088449955,-0.044215939149633045
1772660785405405400,4.317405517578125,-0.07774477232918142,0.021560674422979355,-0.002062138427887112
1772660785415443500,4.327443359375,-0.015981997507810593,0.04154138617813587,-0.05213440239029005
1772660785425481500,4.3374814453125,-0.0202607708055526,0.050182373273372646,-0.027981665647495536
1772660785435520500,4.3475205078125,-0.0720002373278141,0.06615384938716888,-0.04872503233822063
1772660785445558500,4.35755859375,-0.13252981709241865,0.045263037049770354,-0.07067686150325461
1772660785455596500,4.367596435546875,-0.1924488637432456,0.004530044645071029,-0.05424016076419502
1772660785465634600,4.377634521484375,-0.20651392171382904,-0.000820084211230278,-0.019165595979988573
1772660785475673300,4.38767333984375,-0.19425415959954262,-0.020278233397006986,-0.038774113421887156
1772660785485711600,4.397711669921875,-0.147555536788702,-0.01298573830127716,-0.035949027797486634
1772660785495749400,4.407749267578125,-0.11906126371026038,-0.029066520008444785,-0.017845471558440476
1772660785505787400,4.417787353515625,-0.1002830596126616,-0.0372352134168148,-0.047143699697218835
1772660785515826400,4.427826416015625,-0.1096107137978077,-0.03437923946380615,-0.0398214305177331
1772660785525864400,4.437864501953125,-0.12409399718046188,-0.007346271109580993,-0.07288655517566948
1772660785535902500,4.44790234375,-0.09942834247946739,0.006101824006438255,-0.051556529437098646
1772660785545940500,4.4579404296875,-0.05683664353080094,-0.019626491490006445,-0.01574700144184753
1772660785555978500,4.467978515625,-0.05049567700624465,-0.019248305827379224,-0.02942853998756036
1772660785566017300,4.478017333984375,-0.09497194759249687,0.005957447099685669,-0.025495328724477438
1772660785576055600,4.4880556640625,-0.17875154310651123,0.06077975513339042,-0.041432719905581325
1772660785586093300,4.49809326171875,0.0034193799894303083,0.061302902224659915,-0.051965110237989574
1772660785596131600,4.508131591796875,0.08039857477359473,0.008865443500876426,-0.026290150630287824
1772660785606170400,4.51817041015625,-0.050531990428641434,-0.008348726150393485,-0.05519271224867552
1772660785616208600,4.528208740234375,-0.26455694535970686,0.033243513432145114,-0.09294736469602212
1772660785626246400,4.538246337890625,-0.26607319514155386,0.03340016529858112,0.010696659249719232
1772660785636284700,4.54828466796875,-0.09658522800803183,-0.021964579048752784,0.029123328229598698
1772660785646322400,4.558322509765625,-0.14367548048496245,-0.0018038345515727996,-0.029455501059722153
1772660785656361500,4.568361572265625,-0.20356676234602927,0.0056873979866504665,-0.015455160622112453
1772660785666399500,4.5783994140625,-0.08418174657411873,-0.02634790869951248,-0.010314436732791364
1772660785676437500,4.5884375,0.06824176157712936,-0.04399345550537109,-0.03358913026573136
1772660785686475500,4.5984755859375,0.05674765007309615,-0.015754033970832824,-0.05261906236838549
1772660785696514300,4.608514404296875,-0.10480718597359955,0.0465723660826683,-0.07571049002259969
1772660785706552600,4.618552490234375,-0.1777285567343235,0.06803542535007,-0.066609630330652
1772660785716590300,4.62859033203125,-0.12561141600608824,0.03418050202131271,-0.029816059734113512
1772660785726628600,4.638628662109375,-0.07985518861189485,0.0358498965382576,-0.042104609551467
1772660785736667400,4.64866748046875,-0.11267718869633972,0.016285948890447616,-0.046098665890004484
1772660785746705400,4.658705322265625,-0.16577165002413094,-0.04393032714128494,-0.021075776982866227
1772660785756743400,4.668743408203125,-0.16658537755981087,-0.03212590757906437,-0.059378272571321576
1772660785766781700,4.67878173828125,-0.14571546187996864,-0.0015776245802640915,-0.02807621206315234
1772660785776819500,4.6888193359375,-0.15334215736612677,0.05102350027263164,-0.005504369569942355
1772660785786858500,4.6988583984375,-0.1455425164658576,0.035922377252578734,0.006090553693752735
1772660785796896500,4.708896484375,-0.04594458957314491,0.005432546442747116,-0.009727960348036139
1772660785806934500,4.7189345703125,-0.032699177422374485,0.011973930910229682,-0.0044199536004103715
1772660785816972500,4.72897265625,-0.05864961123690009,0.027100188371539113,-0.020351115970127284
1772660785827011600,4.739011474609375,-0.07547938468046486,0.0021896189987659453,-0.029288820989616212
1772660785837049600,4.749049560546875,-0.0989093601066619,-0.03750350896418094,-0.034289022163394835
1772660785847087400,4.75908740234375,-0.10742694001793861,-0.04754793311655521,-0.017709003963507712
1772660785857125600,4.769125732421875,-0.09684241763949393,-0.04816927988529205,-0.02139390302132815
1772660785867163400,4.779163330078125,-0.13971943633556366,-0.06248071383237838,0.017601634598895907
1772660785877202400,4.789202392578125,-0.12694536802358924,-0.03887421279549599,-0.014029822260420769
1772660785887240400,4.799240478515625,-0.12487396857701241,-0.016169629034399984,-0.015365984501317143
1772660785897278500,4.809278564453125,-0.19990297914147376,0.026442601245641708,0.0012545483720488846
1772660785907316500,4.81931640625,-0.038273324292898175,0.0129752169072628,-0.023950766163598744
1772660785917355500,4.82935546875,-0.13719181755408644,0.014037877702713012,-0.08299558726316317
1772660785927393500,4.8393935546875,-0.22587913191914558,0.04955225867629051,-0.049960547216236585
1772660785937431600,4.849431640625,-0.14274477550610898,0.025166005438566206,0.024399167518224567
1772660785947469600,4.859469482421875,-0.13425298762321472,-0.004251227703690528,0.000645202568359673
1772660785957508600,4.869508544921875,-0.11908932076096534,-0.007121814703941345,-0.004340677819121628
1772660785967546400,4.87954638671875,-0.08159341058135032,0.015374094742536544,0.029385285367723554
1772660785977584400,4.88958447265625,-0.05164952321648597,0.051100657162070275,0.019211992404982448
1772660785987622400,4.899622314453125,-0.03751227679252624,0.05962123274803161,0.006806775671709328
1772660785997660400,4.909660400390625,-0.020436054307222364,0.024797172126173973,0.02039970435220748
1772660786007699500,4.919699462890625,-0.028338790255784986,-0.019675591328740118,-0.008160491835605353
1772660786017737500,4.929737548828125,-0.0746317548751831,-0.021364859589934348,0.00788213155195117
1772660786027775500,4.939775390625,-0.1758545795559883,-0.02614975577890873,0.036543249097280205
1772660786037813500,4.9498134765625,-0.1798093085311353,-0.004338321465253829,0.0044674460039474066
1772660786047852500,4.9598525390625,-0.16043606114983558,0.003967150065302848,0.04655696758413687
1772660786057890300,4.969890380859375,-0.13231924308165907,0.0013537526965141295,0.029270792142581194
1772660786067928600,4.979928466796875,-0.12854812704510987,0.008474982878565789,0.023364527240861205
1772660786077966300,4.98996630859375,-0.11366495762467384,-0.011934183421730995,0.015736735776159912
1772660786088004600,5.000004638671875,-0.10107420999035238,-0.00034837504625320433,0.006535429650731384
1772660786098043400,5.01004345703125,-0.12061959906816482,0.0020218612164258957,0.013272756815422325
1772660786108081700,5.02008154296875,-0.08646598505377769,-0.04914017074406147,0.011150869290623814
1772660786118119400,5.030119384765625,-0.058910307999700304,-0.043884734433889384,0.008906396565772592
1772660786128157400,5.040157470703125,-0.07307444243058561,-0.06991875487864017,0.014748418858554213
1772660786138196500,5.050196533203125,-0.08369637420997023,-0.026103578549623488,0.0005116758491843939
1772660786148234200,5.060234130859375,-0.0797732094168663,0.002771218279004097,-0.01009102150676772
1772660786158272500,5.0702724609375,-0.08701075945496559,0.033465631750226016,-0.01881769585777074
1772660786168310500,5.080310546875,-0.10471008227467536,0.033059389036893844,0.0292164864057675
1772660786178349600,5.090349609375,-0.10781856968402861,0.03329728944599628,0.011675989143270999
1772660786188387300,5.10038720703125,-0.11704232510328293,0.0405728334069252,-0.006006181612238287
1772660786198425600,5.110425537109375,-0.13765841215252875,0.033488428103923794,0.03291983443573117
1772660786208463600,5.120463623046875,-0.10575623032674193,0.0192407070428133,0.00007754048192873597
1772660786218502000,5.130501953125,-0.11356924216523766,0.026494623693823813,-0.01098835393898189
1772660786228540700,5.140540771484375,-0.10252513945102691,0.006795651489496231,0.005294526211544871
1772660786238578700,5.15057861328125,-0.08976604951247573,0.002947159367799759,-0.00013509762175381183
1772660786248616700,5.16061669921875,-0.12399798946008085,0.010400982505083084,0.008938271275069564
1772660786258654700,5.17065478515625,-0.14760434436649084,0.0028290859460830685,0.00046288653770461675
1772660786268693800,5.18069384765625,-0.1069159217558801,-0.003276245191693306,0.01681936164740473
1772660786278731800,5.190731689453125,-0.10466799669861793,0.005200491252541542,0.0014432941434904933
1772660786288769800,5.200769775390625,-0.09460369880199432,0.015531915652751922,0.07615286349523812
1772660786298807600,5.2108076171875,-0.09212649503350258,0.04340834909379482,0.04275390377305448
1772660786308845800,5.220845703125,-0.0445322385571897,-0.00362637380361557,0.045040151546709234
1772660786318884600,5.230884521484375,0.14150237422958015,-0.06887655234932899,-0.006294095175527036
1772660786328922600,5.240922607421875,0.34734497255310415,-0.10447159734368323,-0.08870017384663224
1772660786338960600,5.250960693359375,0.7103706215798854,-0.18734277277588843,-0.2617069262234494
1772660786348999000,5.2609990234375,1.4638918181002138,-0.47021454250514505,-0.33444461098033934
1772660786359037700,5.27103759765625,1.5908160702705383,-0.7249661331653594,-0.12192642561672255
1772660786369075700,5.28107568359375,0.2713701325058937,-0.7010171023011207,0.26381736077247187
1772660786379113700,5.29111376953125,-1.5761504160583018,-0.4642243621796369,0.9182618229962884
1772660786389151700,5.30115185546875,-2.3396038085281847,-0.16093699640929698,1.291468820428103
1772660786399190800,5.311190673828125,-2.084345437389612,0.19714462034404276,1.2593753538139163
1772660786409228800,5.321228759765625,-1.587747476480156,0.7237748775541782,0.5516798697274178
1772660786419266800,5.331266845703125,-0.7797977935492992,1.210008242446184,-0.2916648603799753
1772660786429304800,5.341304931640625,0.41196854363307356,1.2899345965981484,-1.0189677841961384
1772660786439343600,5.351343505859375,1.074409393171966,1.0429203221917152,-1.2489010138116776
1772660786449382000,5.3613818359375,0.9007305502198636,0.683789488646388,-1.0772986118074506
1772660786459419600,5.371419677734375,0.23042305895909665,0.37397476693391796,-0.5546064246986061
1772660786469457700,5.381457763671875,-0.46520811251997946,0.17945757248401642,0.03727625781325623
1772660786479495700,5.39149560546875,-0.9137620273590087,0.07631050174236297,0.3171545630812645
1772660786489534700,5.40153466796875,-0.7985608000777661,-0.0065127428948879235,0.27274724781168624
1772660786499572700,5.41157275390625,-0.14017784762755037,-0.1416296538710594,0.05977993044108152
1772660786509610800,5.42161083984375,0.45737435015439987,-0.19803309361636637,-0.11094727789750322
1772660786519648800,5.431648681640625,0.7133679036997258,-0.2192553298652172,-0.27858181745037436
1772660786529687600,5.4416875,0.8483645492970943,-0.25893209121525285,-0.2774587134382687
1772660786539725800,5.451725830078125,0.494098837570101,-0.25316286016404627,-0.05126313598109409
1772660786549763600,5.461763671875,-0.2145006826840341,-0.22838673082590102,0.14090175972161814
1772660786559801900,5.4718017578125,-0.6798901431202888,-0.24579087009131906,0.2565594803323969
1772660786569839600,5.481839599609375,-0.8776853363275527,-0.32098961119949815,0.40934060628227886
1772660786579879000,5.49187890625,-0.8292528754614293,-0.27219021671712396,0.3827050397478044
1772660786589916700,5.501916748046875,-0.5439268444478511,-0.1716629730850458,0.2256823672380298
1772660786599955000,5.511954833984375,-0.07818316374644636,-0.0830015238136053,0.14954236322436482
1772660786609992700,5.52199267578125,0.23169030241593716,-0.03684942896962166,0.004679335188958794
1772660786620031700,5.53203173828125,0.17951967793479562,0.023259879556298255,-0.12202013178216292
1772660786630069800,5.54206982421875,0.07805836832299828,0.039026773008704184,-0.1308673637729138
1772660786640107500,5.552107421875,0.046610944527387614,0.018771335965394972,-0.10535605202801525
1772660786650145800,5.562145751953125,-0.13684578059539199,0.0674865592956543,-0.127818643726781
1772660786660184600,5.5721845703125,-0.07943272541612387,0.09788637373447417,-0.042008254771213976
1772660786670222800,5.582222900390625,-0.024830343743413686,0.11361351969838142,-0.028927476863935587
1772660786680260600,5.592260498046875,0.0389411405518651,0.06945172188878058,-0.15637772566974162
1772660786690299000,5.602298828125,0.18244447934031485,0.03422726377248764,-0.20969408611990512
1772660786700336600,5.612336669921875,0.48934521330222486,0.07747486934661865,-0.18906502999123184
1772660786710375700,5.622375732421875,0.7748001313924789,0.030329087290167808,-0.171397216554638
1772660786720413700,5.63241357421875,0.41218262477517126,-0.12720716076493263,-0.15402133526932446
1772660786730451700,5.64245166015625,-0.2312558565214276,-0.2365828967630863,0.0010811097675934433
1772660786740489700,5.65248974609375,-0.8206104270614684,-0.18637422000467777,0.30495288782976565
1772660786750528800,5.66252880859375,-0.7118062073409557,-0.03684007661938667,0.52374973333776
1772660786760566800,5.67256689453125,-0.3097301121689379,0.057582420396804807,0.4316982397692278
1772660786770604500,5.6826044921875,-0.2736639425314963,0.1218710604339838,0.06415238250480033
1772660786780642800,5.692642822265625,-0.16753697919622063,0.16736206102073192,-0.26216815052703024
1772660786790680600,5.7026806640625,0.16740224690064787,0.11510463503897189,-0.3290885273072868
1772660786800719600,5.7127197265625,0.2666390123307705,0.0672813921123743,-0.341006124920398
1772660786810757600,5.722757568359375,0.07814137043133378,0.055770987060666084,-0.1913593149408698
1772660786820795600,5.732795654296875,-0.09610708910226821,-0.00812193165719509,0.038941798138991
1772660786830833700,5.742833740234375,-0.2211024190366268,-0.06491349393725394,0.0007757153465412557
1772660786840872700,5.752872802734375,-0.20181904189586639,-0.07479249839484692,-0.05479984047356993
1772660786850910700,5.76291064453125,-0.12438976525664329,-0.05756722282767295,-0.11406853345688432
1772660786860948700,5.77294873046875,0.04867445292845368,0.03750876966118812,-0.17265483366660772
1772660786870986800,5.78298681640625,0.4814660043597221,0.13293021458685397,-0.18132376821469515
1772660786881025800,5.79302587890625,0.6807119808971881,0.03419277698099613,-0.29744064903613177
1772660786891063800,5.803063720703125,0.44241979599818587,-0.2211409974813461,-0.13030750140044836
1772660786901101800,5.813101806640625,-0.2633892167545855,-0.30868133376836776,0.1091871363571845
1772660786911139800,5.823139892578125,-1.0142087531007826,-0.18637422000467777,0.3219062145877629
1772660786921177600,5.833177490234375,-1.0853053195871412,0.024921675288677215,0.46742714027632026
1772660786931216600,5.843216552734375,-0.4444108236849308,0.12664952688217163,0.3302022241702303
1772660786941254700,5.853254638671875,-0.0565934093594551,0.1845510962307453,-0.009916395592223853
1772660786951292700,5.863292724609375,0.06506663867235184,0.19164368484020233,-0.3394097225744277
1772660786961330700,5.87333056640625,0.3003684095837176,0.1095183593392372,-0.48349020366370676
1772660786971369700,5.88336962890625,0.3983503526471555,0.08298983337581158,-0.4122383735504001
1772660786981407700,5.89340771484375,0.1965326259255409,0.08905424798130988,-0.13813869734960607
1772660786991445800,5.90344580078125,-0.09420739296078681,0.07488193024396896,0.07429228465459309
1772660787001483800,5.91348388671875,-0.1932989047013223,0.06533201161026954,0.16808716042488814
1772660787011521800,5.923521728515625,-0.2696107216179371,0.05096037190854549,0.09177906070216559
1772660787021560600,5.933560546875,-0.2889280010282993,0.038792379730939866,-0.0462528609378729
1772660787031598800,5.943598876953125,0.16354586373344063,0.05268061982989311,-0.15704831840768455
1772660787041636600,5.95363671875,0.7626794854879378,-0.06636018561422824,-0.2847525054419413
1772660787051675000,5.9636748046875,0.8190203813910484,-0.3291688260018825,-0.1830269006044604
1772660787061713700,5.973713623046875,-0.19670579053536055,-0.30707740570306774,0.09095514056603424
1772660787071752000,5.983751953125,-1.2003683074414728,-0.02166413479745388,0.32533516612313684
1772660787081789700,5.993789794921875,-1.0207808249674737,0.16912965521514414,0.5412647856317461
1772660787091827700,6.00382763671875,-0.3745287475548684,0.22963176245093345,0.4197289485014975
1772660787101866800,6.01386669921875,-0.01125204637646675,0.2421077976644039,-0.000327039997279644
1772660787111904500,6.023904541015625,0.23852219426259397,0.19995266350209712,-0.43512452442348
1772660787121942800,6.03394287109375,0.35616657691225406,0.1119499704003334,-0.6361758698824793
1772660787131980500,6.04398046875,0.31821386287584896,0.07055588373839855,-0.47528439311534165
1772660787142018800,6.054018798828125,0.154247143381834,0.05908464165329933,-0.11076751001696102
1772660787152057600,6.0640576171875,-0.13722703499794006,0.051530865272879596,0.12446697694500908
1772660787162095900,6.074095947265625,-0.2793731139585376,0.005872106903791427,0.21353485159287228
1772660787172133600,6.084133544921875,-0.23178616400584579,-0.027521044132113454,0.13922855667923575
1772660787182172000,6.094171875,-0.31813992085680365,-0.009912906727194786,-0.0013554149306379258
1772660787192210700,6.104210693359375,-0.11648235313296318,0.12742927908301352,-0.05895285023348406
1772660787202248700,6.114248779296875,0.37628129031062124,0.13381634977161883,-0.08735098772738129
1772660787212286000,6.124285888671875,0.6621627632498741,-0.12362287253737449,-0.15513132407153024
1772660787222324000,6.134323974609375,0.34059389085769654,-0.33688042329251766,-0.02736426440151408
1772660787232362000,6.144362060546875,-0.5492986006140709,-0.2651794611722231,0.21686615144005045
1772660787242400800,6.15440087890625,-1.0168610211752354,-0.02143792482614517,0.3728468954151496
1772660787252439000,6.16443896484375,-0.6710673697173595,0.08688742533624172,0.4193704904526472
1772660787262476800,6.174476806640625,-0.1492411517880857,0.13289514327347277,0.17888570914650334
1772660787272515000,6.18451513671875,0.19461203312650321,0.10760405015051364,-0.21832020443957298
1772660787282553900,6.194553955078125,0.31233328040465713,0.07913315794765949,-0.563275541909784
1772660787292592000,6.204592041015625,0.18519991552829743,0.06683306382298469,-0.5260275055440142
1772660787302630000,6.2146298828125,0.12387787021175026,0.04932429513931274,-0.24688679383555426
1772660787312668200,6.224668212890625,-0.01567673095092177,0.04262801237106323,-0.054613578920159486
1772660787322707000,6.23470703125,-0.15231719823256135,0.081319854336977,0.10892955400007777
1772660787332745000,6.244744873046875,-0.1335096219100058,0.08413549627959728,0.17238588053211568
1772660787342783000,6.254782958984375,-0.24919571009874342,0.05789981578290462,0.06580944726313465
1772660787352821000,6.264821044921875,-0.3255177561484277,0.08829261595904826,-0.03446135565615259
1772660787362859000,6.27485888671875,-0.004699702123552561,0.07832944034934043,-0.037046632042154665
1772660787372897800,6.284897705078125,0.4113235237278044,-0.05094342077374458,-0.06295230426634661
1772660787382936000,6.29493603515625,0.476083726799488,-0.2281698732048273,-0.09032978434246033
1772660787392973800,6.304973876953125,0.08999313626661896,-0.2716395970970392,0.19256956751346588
1772660787403012000,6.31501220703125,-0.5961654195986688,-0.1111918455094099,0.30821689459439366
1772660787413051000,6.32505078125,-0.8188144835554063,0.06499357343614101,0.2974288124678656
1772660787423089200,6.335089111328125,-0.5258114881731569,0.11218553272187709,0.207348107515648
1772660787433127000,6.345126953125,-0.16622867307662964,0.1287117201089859,-0.0039602362673263995
1772660787443165200,6.355165283203125,0.05167158891782164,0.11727379577159881,-0.18150559105500577
1772660787453203000,6.365202880859375,0.22114932691827416,0.06385609383881091,-0.314354447501339
1772660787463242000,6.375241943359375,0.1947650317311287,0.00916764131784439,-0.3420548302557319
1772660787473280000,6.385280029296875,0.04681187392696738,0.028072248274087903,-0.1792771744158119
1772660787483318000,6.395318115234375,-0.017880670735985038,0.07670154688656329,0.017606201176159082
1772660787493356000,6.40535595703125,-0.05017082896605134,0.103740944981575,0.045789462943514804
1772660787503395000,6.41539501953125,-0.0669162120617926,0.04682897119224071,0.05465286061777733
1772660787513433000,6.42543310546875,-0.13397709329128266,-0.013235329148173332,0.008651709418650715
1772660787523470800,6.435470947265625,-0.17597382202148437,-0.004217325434088707,-0.06015715712248347
1772660787533509000,6.445509033203125,-0.1055143843948841,-0.006700958943367004,-0.10243525094417855
1772660787543547000,6.455546875,0.1256442953623831,-0.10932079094052315,0.0033890761827118695
1772660787553586000,6.4655859375,0.24207038826346397,-0.20615970144867896,0.1032701582652051
1772660787563624000,6.4756240234375,-0.2412989654995501,-0.1143897647678852,0.16930444552646948
1772660787573662000,6.485661865234375,-0.5574737237632275,0.026419220370054244,0.24535945640411227
1772660787583700000,6.495699951171875,-0.41549116480126974,0.10297580582797526,0.23069095264766365
1772660787593739000,6.505739013671875,-0.127991589140892,0.08733400005996227,0.09055279770968482
1772660787603777000,6.515777099609375,0.036742023072391744,0.040697921091318125,-0.11357132452446966
1772660787613815000,6.52581494140625,0.08743994465246796,-0.01726385401189327,-0.2405105550682172
1772660787623853000,6.53585302734375,0.057657239198684686,-0.03194412127137184,-0.2527618598814122
1772660787633892000,6.54589208984375,0.07219429859519004,-0.009108020085096358,-0.14245229536555706
1772660787643929900,6.555929931640625,-0.03226327022314072,0.04193535393178463,-0.015962909214850513
1772660787653968100,6.565968017578125,-0.1628583198606968,0.12518354598283768,0.07870946177602745
1772660787664006000,6.576005859375,0.006394815603643656,0.10525368763208388,0.0939549434365239
1772660787674044000,6.5860439453125,0.06853869869709014,0.05591945562064647,0.03266580487573519
1772660787684083000,6.5960830078125,-0.11538929719924926,0.0723047732323408,-0.024606316596036775
1772660787694121000,6.606120849609375,-0.1788053921855986,0.07493745982348919,-0.02757425389038399
1772660787704159000,6.616158935546875,-0.07389876442551613,0.010152560701966285,-0.03131899337666109
1772660787714197000,6.626197021484375,0.08164937855228781,-0.10210019203722476,0.12079444417841732
1772660787724236000,6.636236083984375,-0.030249153921753168,-0.14811901589035986,0.18524088685950263
1772660787734273800,6.646273681640625,-0.41245983428135513,-0.06296703604459762,0.12441040618587285
1772660787744312000,6.65631201171875,-0.5704258520558476,0.06385083314180373,0.12306395087982527
1772660787754349800,6.666349853515625,-0.2971872953295708,0.07817103491723537,0.006923214258765802
1772660787764388000,6.67638818359375,0.13324994806051255,0.03490940081775188,-0.10919496347061358
1772660787774427000,6.686427001953125,0.2927227171361446,0.014012158739566802,-0.20602453076168895
1772660787784465200,6.696465087890625,0.17400047612190245,0.041539048090577124,-0.24357808941267428
1772660787794503000,6.7065029296875,0.062098290386050935,0.04897592009305954,-0.20019807136422021
1772660787804541000,6.716541015625,-0.014022680133581161,0.045860418421030044,-0.05568967458591796
1772660787814580000,6.726580078125,-0.08796820631027222,0.04395604610443115,0.04370176081610843
1772660787824618000,6.736617919921875,-0.1166695462681353,-0.0028086276799440383,0.06671853406522422
1772660787834656000,6.746656005859375,-0.1129356204368174,-0.051533203360438345,0.08955745739624835
1772660787844694000,6.756694091796875,-0.24326047483086585,-0.05858429091572761,0.008771034082537517
1772660787854733000,6.766733154296875,-0.3272844735600054,-0.014289222115278243,-0.019023173568304626
1772660787864770800,6.776770751953125,-0.16010288367271422,-0.05148527256548405,0.02056453039194457
1772660787874809000,6.78680908203125,0.2071745775796473,-0.18063538409173488,0.0543899079658091
1772660787884846800,6.796846923828125,0.11428908087238669,-0.17859423365294932,0.07472873984309844
1772660787894885000,6.806885009765625,-0.28846856682300565,-0.04730243392288685,0.12224749253094196
1772660787904924000,6.816923828125,-0.4655668628297746,0.05935644433200359,0.17580672182627022
1772660787914962200,6.826962158203125,-0.38110476494431494,0.11906301727592944,0.17800295322891324
1772660787925000000,6.837,-0.15613529521599412,0.1312514677196741,0.04467265167487785
1772660787935038200,6.8470380859375,0.11558569655418395,0.0868447552382946,-0.12330544061865657
1772660787945077000,6.857076904296875,0.2055611510336399,0.07608779890239238,-0.26724048535525796
1772660787955115000,6.867114990234375,0.08466565763354301,0.09208967015445232,-0.2866249847829342
1772660787965153000,6.877153076171875,0.11721885071396827,0.07207914778292179,-0.158819456266053
1772660787975190800,6.887190673828125,0.11608268629088997,0.07482055544555187,-0.023123822953319176
1772660787985229000,6.89722900390625,-0.104594200810045,0.10744856732785701,-0.027609069475438446
1772660787995267800,6.907267822265625,-0.20051205095052718,0.06897066037356853,-0.10565142737855203
1772660788005306000,6.91730615234375,-0.1676888087570667,-0.052099605071544645,-0.04944069719375111
1772660788015343900,6.92734375,-0.18377587407454848,-0.13735387624800205,0.00836238934956491
1772660788025382100,6.937382080078125,-0.22997063901647924,-0.11444587886929511,0.016200124637363478
1772660788035421000,6.9474208984375,-0.18483970391377805,-0.08383212941884995,0.0018211966783273964
1772660788045459000,6.957458984375,-0.037424452378600835,-0.09360182828307151,-0.01327244628816843
1772660788055497000,6.9674970703125,0.050815848871320485,-0.13490005335509778,0.10980750587838702
1772660788065535000,6.977534912109375,-0.06764686442390083,-0.07418985632658004,0.15838331160480157
1772660788075574000,6.987573974609375,-0.23877602289319036,0.04854278937280178,0.14579344075331463
1772660788085612000,6.997612060546875,-0.2747356634162366,0.11332710397243499,0.0918232195043005
1772660788095650000,7.007650146484375,-0.16786182723641394,0.08645078748464584,0.003570140971196815
1772660788105688000,7.01768798828125,-0.01996492966413498,0.03219897281527519,-0.09605345008573495
1772660788115726000,7.02772607421875,0.001885813746601343,0.0812765997171402,-0.11395782135771587
1772660788125765000,7.03776513671875,-0.04376549196839332,0.14541151049733161,-0.08418877910310402
1772660788135803000,7.047802978515625,-0.07068140981420874,0.11030512580275535,-0.08671575856376439
1772660788145841000,7.0578408203125,0.01011924295425415,0.048021395847201345,-0.07056695312168448
1772660788155879000,7.06787890625,0.04700008997544646,0.024895956325531005,-0.07368754196078516
1772660788165918000,7.07791796875,0.07462240252494812,-0.004607201534509659,-0.01170320594375953
1772660788175956000,7.0879560546875,0.0002291325807571411,-0.02558160050213337,0.031074142636964095
1772660788185994000,7.097993896484375,-0.2244203114129603,-0.023444588473439214,0.006670700802421197
1772660788196032000,7.108031982421875,-0.2867128091968596,0.004587327790260315,-0.08431260641217231
1772660788206070000,7.118070068359375,-0.2414203999221325,0.021877485287189483,-0.06003197810654528
1772660788216109300,7.128109375,-0.256108265966177,-0.002691138780117035,0.025416299538360908
1772660788226147000,7.13814697265625,-0.17420958882793783,-0.033579613518714906,0.0788637390222866
1772660788236185300,7.148185302734375,-0.012294687297195196,-0.04607961412966251,0.13415824027815834
1772660788246223000,7.15822314453125,0.020737813732773065,-0.011831892091035842,0.12385134753100573
1772660788256262400,7.168262451171875,-0.058234892956167454,0.01753916382193565,0.028314468665281308
1772660788266300200,7.178300048828125,-0.05594546684473753,0.042754853621125216,-0.009850326352380215
1772660788276338400,7.18833837890625,-0.061075377079099415,0.09463643202781677,0.023315820127772165
1772660788286376200,7.198376220703125,-0.10079027848243713,0.10788637422323226,0.024296346464566885
1772660788296414500,7.20841455078125,-0.1561420172177255,0.0713818131685257,-0.021789852669509127
1772660788306453200,7.218453369140625,-0.12013093876838683,0.03750584705173969,-0.0030352851758245376
1772660788316491300,7.2284912109375,-0.08323124091625213,0.02068038445711136,0.007724630302144214
1772660788326529300,7.238529296875,-0.029359219344705343,0.008307809618115424,-0.016959537303075194
1772660788336567000,7.248567138671875,0.03395940661653876,0.035816578790545464,-0.019234313834644853
1772660788346606300,7.2586064453125,0.08203399395570159,0.005160743764042854,-0.002550707396119833
1772660788356644000,7.26864404296875,0.0794796332977712,-0.001668225473165512,-0.08342751240702345
1772660788366682400,7.278682373046875,-0.03631868309378624,-0.0024158289700746535,-0.0676049158451613
1772660788376720100,7.28872021484375,-0.1871123250208795,-0.042674774122238156,-0.05730717451884411
1772660788386759200,7.29875927734375,-0.20749474944472313,-0.07548691039979458,0.0020603209301363677
1772660788396797200,7.308797119140625,-0.2087713452517986,-0.15047639267146587,0.07255488466904499
1772660788406835200,7.318835205078125,-0.06258724294677376,-0.11956278349161148,-0.05422200405299663
1772660788416873200,7.328873291015625,-0.0329882234968245,-0.14677812267541884,0.040478889779467134
1772660788426911200,7.3389111328125,-0.0861737241089344,-0.07743453733623028,0.026020722571760413
1772660788436950300,7.3489501953125,-0.13457783566340803,-0.019775544571876524,-0.002330223912699148
1772660788446988300,7.35898828125,-0.14968334259763358,0.06032791971266269,-0.03567869555666111
1772660788457026300,7.3690263671875,-0.0307118029974401,0.07178630231618881,-0.08748877962972038
1772660788467064300,7.379064208984375,-0.006295300751924514,0.03343231400251388,-0.05684950301237404
1772660788477103400,7.389103271484375,-0.09736512633934616,0.005527238988876342,-0.03868505603210069
1772660788487141400,7.399141357421875,-0.15319266589283942,-0.0043517654687166216,-0.04857611625366844
1772660788497179400,7.409179443359375,-0.09000131957307457,0.017704583516716957,-0.020220201333146542
1772660788507217200,7.419217041015625,0.051284781557321545,0.010594459250569344,-0.0028465485375374555
1772660788517255400,7.42925537109375,0.038560762932151556,0.022717443242669104,0.0035932387189939615
1772660788527294200,7.439294189453125,-0.05135492418408394,0.042893969830870626,0.0023864841445814817
1772660788537332200,7.449332275390625,0.01646028254404664,0.02086801598370075,0.0069623041601385915
1772660788547370200,7.459370361328125,-0.02345905539020896,0.030113983234763143,0.008045943811535835
1772660788557408300,7.469408203125,-0.18911723510250447,0.04630056340396404,-0.07271159133440815
1772660788567447300,7.479447265625,-0.26450433838963505,0.046318099060654636,-0.1027844753738027
1772660788577485300,7.4894853515625,-0.14510639007091522,0.03474982634186744,-0.01803587956400588
1772660788587523300,7.4995234375,-0.019130232405662535,0.006762918263673782,-0.0038295134265907108
1772660788597561300,7.509561279296875,-0.05202829340100288,0.03532558040320873,-0.006504678319441154
1772660788607600000,7.51960009765625,-0.11689137232527136,0.04425415226817131,-0.009896256986493244
1772660788617638400,7.529638427734375,-0.19745003303140402,0.06338146206438541,-0.05206187601019628
1772660788627676200,7.53967626953125,-0.13298939742818475,0.06748539025187492,-0.09835450270287692
1772660788637714400,7.54971435546875,-0.05578691528216004,0.05788228012621403,-0.09399519324852153
1772660788647752200,7.559752197265625,-0.0011434709466993807,0.038385552495718,-0.03899591207955964
1772660788657791500,7.56979150390625,-0.004767506662756204,0.0057172086030244824,-0.018095683459844438
1772660788667829200,7.579829345703125,-0.043910453397035594,-0.027128829944133757,0.00912013978115283
1772660788677867300,7.5898671875,-0.08474047643542289,0.001246200668811798,-0.033191125657781956
1772660788687905300,7.5999052734375,-0.09784896433353424,-0.025118074643611907,-0.06706767629645764
1772660788697944000,7.609944091796875,-0.041152825251966715,-0.03664075465500354,-0.1248642600337509
1772660788707982300,7.619982421875,-0.01239887832403183,-0.044860885989665984,-0.08862583910194224
1772660788718020000,7.63002001953125,-0.04977218503728509,-0.03786006731688976,-0.051584084164304655
1772660788728058400,7.640058349609375,-0.10576455976366995,-0.02467266896367073,-0.06782917132140137
1772660788738096000,7.65009619140625,-0.1112343694768846,0.003531681257486343,-0.05512850617235526
1772660788748135400,7.660135498046875,-0.15618775605559349,0.03811842599213123,-0.09541712494357489
1772660788758173200,7.670173095703125,-0.09283829656466841,0.09372340883612632,-0.044216076146950944
1772660788768211500,7.68021142578125,-0.08013429781422018,0.07849778265357017,-0.028788196257408707
1772660788778249200,7.690249267578125,-0.17561141844987868,0.10779869593977928,-0.055681801806716245
1772660788788288300,7.700288330078125,-0.04374678726792335,0.09241875597834587,0.03224727806956507
1772660788798326300,7.710326171875,0.07461889539361,0.043245267486572266,-0.021677788863470777
1772660788808364000,7.720364013671875,-0.049435500428825614,0.02474456515610218,-0.10635682656839489
1772660788818402300,7.73040234375,-0.1496400879777968,0.01999532480239868,-0.08163427231470123
1772660788828440000,7.740440185546875,-0.12050050273314118,0.005871522381901741,-0.038814491098048166
1772660788838479400,7.750479248046875,-0.07081365789175033,0.026367197921872136,0.011413538814801722
1772660788848517000,7.76051708984375,-0.05488441348448395,0.013441665375232696,-0.015556045447010546
1772660788858555400,7.770555419921875,-0.04952069449424743,-0.026751228803396223,-0.034374517622916025
1772660788868593200,7.78059326171875,-0.07261164722442627,-0.020155483800172805,-0.02943407467920333
1772660788878632200,7.790632080078125,-0.06517287552580237,-0.0029997663378715515,-0.028901082047354427
1772660788888670200,7.800670166015625,-0.13832345193251966,0.023120763346552848,-0.04587344229938462
1772660788898708200,7.810708251953125,-0.2068330706655979,0.04452946207821369,-0.07967439781804568
1772660788908746200,7.820746337890625,-0.13476751301661133,0.05070552036464214,-0.0687528985701967
1772660788918785300,7.830785400390625,-0.09822890356183052,0.04579904362261295,-0.018145833611348642
1772660788928823300,7.8408232421875,-0.10722469544410705,0.024954408514499662,-0.01171364513938315
1772660788938861300,7.850861328125,-0.060961979832500214,0.014740473014116287,-0.024809401420084757
1772660788948899300,7.8608994140625,-0.05878653548955917,-0.0045066637694835664,-0.023698389704572036
1772660788958937000,7.87093701171875,-0.00819733498096466,-0.00905658215880394,-0.02222071836744435
1772660788968976400,7.880976318359375,-0.000350567003339529,0.03575345042645931,-0.0376652388645336
1772660788979014100,7.89101416015625,-0.03562880113348365,0.04051964191496372,-0.07267901337221265
1772660788989052400,7.901052490234375,-0.07246420157775282,0.03478139052391052,-0.06748808453246019
1772660788999090200,7.911090087890625,-0.10361220403537154,0.017367898908257483,-0.1384334607787896
1772660789009129200,7.921129150390625,-0.06983619116172195,0.030756957313418386,-0.12214353896612301
1772660789019167200,7.931167236328125,-0.08489026016965508,0.01992342860996723,-0.07298227063510566
1772660789029205200,7.941205322265625,-0.1310987613759935,-0.01025777464210987,-0.0387116426449269
1772660789039243300,7.9512431640625,-0.14861717467084526,-0.0014969605594873428,0.013005475048208608
1772660789049281300,7.96128125,-0.09320318435430526,-0.018299042278528212,0.0720805360224098
1772660789059320300,7.9713203125,-0.03641556759700179,-0.031147417935729026,0.027676371691143137
1772660789069358300,7.9813583984375,-0.02477671386003494,-0.041536710003018375,-0.03137144508310594
1772660789079396400,7.991396240234375,-0.009002806144952774,-0.025642390778660772,-0.01646288549308665
1772660789089434400,8.001434326171875,0.018917320307344197,-0.02826455597579479,-0.03184074309528805
1772660789099473200,8.01147314453125,-0.03458163016811013,0.02960778727829456,-0.04932702595251612
1772660789109511400,8.021511474609374,-0.13246215868368744,0.034027357286214824,-0.04757753367037512
1772660789119549200,8.031549072265625,-0.13078794186115264,0.03305179025232792,-0.07536636189320124
1772660789129587200,8.041587158203125,-0.1425192961871624,0.03326981691718101,-0.023362052155984563
1772660789139626200,8.051626220703126,-0.128218237503618,0.02488134327828884,-0.01203694054330699
1772660789149664300,8.061664306640624,-0.08249693529233336,-0.0487859504789114,0.028569539404893294
1772660789159702300,8.071702392578125,-0.09473477783575654,-0.0971931307733059,0.04214483196400106
1772660789169740300,8.081740234375,-0.09383812125697731,-0.0848357535034418,0.025263346599508074
1772660789179778300,8.0917783203125,-0.06938289443626999,-0.0964385130137205,0.021169711477169766
1772660789189817000,8.101817138671874,-0.1462964766383171,-0.04288052582740783,-0.012694509402895345
1772660789199855400,8.11185546875,-0.13959098765030503,0.029849779340624806,0.02063113848790526
1772660789209893400,8.121893310546875,-0.07754515810385346,0.07025427044332028,0.05659224031567573
1772660789219931600,8.131931640625,-0.07686009844914078,0.04633154306411743,0.05524676225716248
1772660789229970400,8.141970458984375,-0.05581731042042374,0.03331014892756939,0.06842400454254821
1772660789240008700,8.1520087890625,-0.06465513526201248,0.04924070850908756,0.059630877359211444
1772660789250046500,8.16204638671875,-0.03958484528288245,0.07037994264960289,0.038905740444920955
1772660789260084700,8.172084716796874,-0.016172405513375995,0.052550271448493,-0.011346410129033029
1772660789270122500,8.18212255859375,-0.008988923750072717,0.03210311122536659,-0.08033327271873131
1772660789280161500,8.19216162109375,-0.09364055285826325,0.0284036721855402,-0.10288805447928606
1772660789290199600,8.202199462890626,-0.07432546540498733,-0.010397475373744964,-0.09775640894556417
1772660789300237300,8.2122373046875,-0.0014088438846170902,-0.05321545735895633,-0.09788776197396218
1772660789310275600,8.222275634765625,-0.1084672428511083,-0.07730886512994765,-0.04696953044040128
1772660789320314400,8.232314453125,-0.2924281181037426,-0.0662093789666891,0.01925029685506597
1772660789330352600,8.2423525390625,-0.176461313277483,-0.049499651706218714,0.07137965774405747
1772660789340390400,8.252390380859374,-0.05799626189470291,-0.06325520533621311,0.07600510732131079
1772660789350428700,8.2624287109375,-0.018591303223371505,-0.005962707796692848,0.024458825283590703
1772660789360466400,8.272466552734375,-0.03023717122301459,0.0651163230329752,0.02468138199308887
1772660789370505500,8.28250537109375,-0.0352909474812448,0.08452771046757697,0.07065592831308022
1772660789380543500,8.29254345703125,-0.038909137978404756,0.06818915460705757,0.07688605487430468
1772660789390581500,8.30258154296875,-0.06895502441301941,0.050124505606293675,0.044659901791159064
1772660789400619500,8.31261962890625,-0.16127090453878043,0.07846855655908584,0.009631751698255538
1772660789410658600,8.322658447265624,-0.19546075891032813,0.08074234670996666,0.03020354294804856
1772660789420696600,8.332696533203125,-0.11798355147615075,0.0483282698392868,-0.0163104805435054
1772660789430734600,8.342734619140625,-0.03981646208167076,0.03235036398470401,0.00708296226458624
1772660789440772600,8.352772705078126,-0.07936039083227515,0.03128711866736412,-0.01624000912318006
1772660789450811600,8.362811767578124,-0.09545023262873291,0.03741758424639702,-0.034165066990163175
1772660789460849400,8.372849365234375,-0.07711363481879234,0.04034486986994743,-0.03544222905281931
1772660789470887400,8.382887451171875,-0.0695591277860105,0.02881926724910736,-0.017007906489446757
1772660789480925400,8.392925537109376,-0.062052697678655386,-0.011790391036868094,-0.013241083035524934
1772660789490963500,8.40296337890625,-0.10933379655256867,0.0035386955201625824,-0.012298066564369946
1772660789501002500,8.41300244140625,-0.13008666172400116,0.008014379629492759,-0.015653240477479992
1772660789511040500,8.42304052734375,-0.11234642237201332,-0.042783495193719864,-0.015335881623998283
1772660789521078500,8.43307861328125,-0.0826315214574337,-0.06230886439681053,-0.02339000874198973
1772660789531116500,8.443116455078124,-0.0692939009785652,-0.08197627241909504,-0.023452406453713773
1772660789541155600,8.453155517578125,-0.04294146223440766,-0.03397007414102554,-0.041784729947336015
1772660789551193600,8.463193603515625,-0.013295681033283472,0.01036065049469471,-0.011525602620840071
1772660789561231600,8.473231689453126,-0.04485167976990342,0.03543196338713169,0.006949051952920854
1772660789571269600,8.48326953125,-0.08966814209595322,0.02280512152612209,-0.026774079956021157
1772660789581308700,8.49330859375,-0.07628156790882348,0.010436638340353965,-0.010234722560085356
1772660789591346400,8.503346435546876,-0.13732786502391098,-0.004723521390557289,-0.0449568571774289
1772660789601384400,8.513384521484374,-0.044296237844228745,-0.02800970443189144,-0.04826824674773961
1772660789611422500,8.52342236328125,0.02088029094338417,0.00859422534406185,-0.06081858930643647
1772660789621460500,8.53346044921875,-0.13462255158796907,0.11335223841369152,-0.05277032567365095
1772660789631499500,8.54349951171875,-0.07023863448277115,0.07429448574483394,0.015877313290629535
1772660789641537500,8.55353759765625,-0.018890724561363457,0.084313190934062,-0.024056564625632017
1772660789651575600,8.563575439453125,-0.009182838886976241,0.06839549083411693,-0.02692282251063734
1772660789661613600,8.573613525390625,-0.0023638065218925474,0.06503975066542625,-0.004374269561469555
1772660789671652600,8.583652587890626,-0.01792860153093934,0.06718611504435539,0.0230235683160834
1772660789681690400,8.5936904296875,-0.06379822617173195,0.05555705204904079,0.05820062536038458
1772660789691728600,8.603728759765625,-0.0976138404034078,0.02187982337474823,0.00981012220615521
1772660789701766400,8.613766357421875,-0.06587327888011932,-0.028999884513020515,-0.013537198171578347
1772660789711804700,8.6238046875,-0.07226780222281813,-0.04719780450463295,-0.02171504300078377
1772660789721843500,8.633843505859375,-0.05974880465045571,-0.03264262492954731,-0.024000322660058734
1772660789731881700,8.6438818359375,-0.0266214649438858,-0.012666004827618598,-0.01155908476533368
1772660789741919500,8.65391943359375,-0.024349866750091313,-0.015866846695542336,0.015869020386319606
1772660789751957500,8.66395751953125,-0.054095162802934645,-0.003827449333667755,-0.0059847552317194635
1772660789761996500,8.67399658203125,-0.045279549793153996,0.00807926155924797,0.03839801011849195
1772660789772034300,8.684034423828125,-0.023560908329486846,0.036115853998064995,0.062442427648603915
1772660789782072600,8.694072509765626,-0.07805223084315657,0.011412205374240874,0.030038579910993575
1772660789792110300,8.7041103515625,-0.09656287004575133,0.012998013260960579,0.008269797428976744
1772660789802149600,8.714149658203125,-0.0754195442520082,0.0511427427381277,-0.007319364836346358
1772660789812187400,8.7241875,-0.07301379828453064,0.03423369351327419,-0.009482607284840195
1772660789822225700,8.7342255859375,-0.09080898269414901,0.018661445850133896,-0.028315683374833315
1772660789832263400,8.744263427734374,-0.07330489018559455,0.054586161190271376,-0.0015111900142394006
1772660789842301700,8.7543017578125,-0.08343231644630432,0.016380056914687156,0.03208616009056568
1772660789852340500,8.764340576171875,-0.07950330643430352,-0.017557284000515937,-0.004163567686546594
1772660789862378500,8.77437841796875,-0.024663462743908165,-0.022093758386373518,-0.028344178816955536
1772660789872416500,8.78441650390625,-0.00752528093829751,0.0009510171145200729,0.015275274010561406
1772660789882454500,8.79445458984375,-0.007160247018188238,0.017992168286442754,0.04095408780947327
1772660789892493600,8.80449365234375,-0.02896744354814291,0.0013455693900585174,0.02018083743713796
1772660789902531600,8.814531494140626,-0.05634557207822799,0.01956570121347904,0.013458579977415501
1772660789912569600,8.824569580078125,-0.0754594378709793,-0.009856792625784873,0.019503614029008895
1772660789922607400,8.834607421875,-0.08902034571170807,-0.028209610918164253,-0.02383886675434187
1772660789932645600,8.844645751953125,-0.09174071058630942,0.0007125321835279464,-0.024935521150939166
1772660789942684400,8.854684326171874,-0.11181669940948485,0.050559389892220495,-0.04501587562197819
1772660789952722400,8.864722412109375,-0.07574366163983941,0.08535831607282161,-0.0012200250479392706
1772660789962760400,8.874760498046875,-0.02435132805481553,0.043314825591444964,0.02182082319650799
1772660789972798500,8.884798583984375,-0.04230535628795624,0.00985387001633644,0.015039985683653502
1772660789982837500,8.89483740234375,-0.040849750652164216,-0.00963818143904209,0.02463169763246551
1772660789992875500,8.90487548828125,-0.05041866624727845,-0.0030862755775451656,0.03421604825872928
1772660790002913500,8.91491357421875,-0.06776932175979018,0.004900631523132324,0.0009261384015902877
1772660790012951600,8.92495166015625,-0.08027224498018622,0.007298340314626693,-0.009750610571261495
1772660790022990600,8.934990478515624,-0.05534136347174644,-0.00812894591987133,-0.01911669707065448
1772660790033028600,8.945028564453125,-0.054313627859205,-0.0017266776621341704,-0.001328399059548974
1772660790043066600,8.955066650390625,-0.08467150285243988,0.025250176590681076,-0.007558050696738064
1772660790053104400,8.9651044921875,-0.10188114245906471,0.043105566754937166,-0.009671809714008122
1772660790063142700,8.975142578125,-0.06261749195456505,0.027170915520191193,-0.03039561318773776
1772660790073181700,8.985181640625,-0.06653977996483444,0.017421090400218962,-0.0506364006511867
1772660790083219500,8.995219482421875,-0.029826836856454608,0.018221885389089584,-0.016508048942219467
1772660790093257500,9.005257568359376,-0.019256343003362417,0.02281564292013645,-0.007577303386479615
1772660790103295500,9.01529541015625,-0.03201426389813423,0.049261751297116275,-0.03305423793774098
1772660790113334500,9.02533447265625,-0.019248159696906804,0.041897360008955,-0.002210826183576137
1772660790123372500,9.03537255859375,-0.018617022186517715,0.0017635025411844253,-0.020155757794808594
1772660790133410600,9.04541064453125,-0.1138112342275679,-0.01125379994213581,-0.047958961602859194
1772660790143448600,9.055448486328125,-0.05871873095035553,-0.0005395137041807175,-0.0436927737920545
1772660790153486600,9.065486572265625,0.04762304417937994,-0.024749825853109357,-0.013993563636951147
1772660790163525600,9.075525634765626,-0.0677323507502675,-0.02684767491519451,-0.024485695024207232
1772660790173563400,9.0855634765625,-0.31966581524983045,0.0228700034558773,-0.010406279734708368
1772660790183601700,9.0956015625,-0.1052023958362639,0.028186814564466475,0.006002345687337219
1772660790193639400,9.105639404296875,0.030168197640031574,0.031084874093532562,-0.01938590593347326
1772660790203678700,9.1156787109375,-0.017923779225349424,0.05888415064513683,-0.055366552711930125
1772660790213716000,9.125716064453124,-0.10846621993780135,0.10559037224054336,-0.029144882474280893
1772660790223754000,9.13575390625,-0.07714972904548048,0.051233343631029125,-0.0006217120949178934
1772660790233792000,9.1457919921875,0.047729573293775314,0.029195114824175833,-0.06458146723760291
1772660790243831000,9.1558310546875,0.04303147860541939,0.027165070301294326,-0.06811225344594568
1772660790253869000,9.165869140625,-0.06933379459753632,0.010290507867932319,-0.09198030976215377
1772660790263907000,9.175906982421875,-0.0905835033752024,-0.02052197902500629,-0.07308929293984547
1772660790273945000,9.185945068359375,-0.02968552868962288,-0.058602411094307895,-0.0012731982735916972
1772660790283983000,9.195983154296876,-0.017134674674272536,-0.03587503097951412,-0.017835096294898538
1772660790294022100,9.206022216796875,-0.07242123921886086,-0.02512625795006752,-0.08440039429347962
1772660790304060000,9.216059814453125,-0.12109072371125221,0.04443886118531227,-0.10784717472400515
1772660790314098200,9.22609814453125,-0.10411503899097442,0.09077391138076782,-0.09671776834651827
1772660790324136000,9.236135986328126,-0.04916282096728682,0.06742226188778877,-0.052256019475962964
1772660790334175200,9.24617529296875,-0.03681567283049226,0.03824000654518604,-0.034655188594665376
1772660790344213000,9.256212890625,-0.044172173073142765,0.020846388673782346,-0.021950879316963254
1772660790354251000,9.2662509765625,-0.011167729093879461,0.03769347857832908,-0.0038577896730042993
1772660790364289000,9.2762890625,0.0018963351406157017,0.0007043488770723343,0.036846506360173226
1772660790374327000,9.2863271484375,-0.044241292786598205,-0.04718552954494953,-0.0322459354958497
1772660790384366000,9.296365966796875,-0.11363120148554444,-0.017925532791018484,-0.04075324974143878
1772660790394403800,9.30640380859375,-0.13657353952527046,-0.01253039574921131,-0.04177466521104797
1772660790404442000,9.316442138671874,-0.10438874136582016,-0.054578562405705446,-0.06776944962395355
1772660790414480000,9.32647998046875,-0.07877616120353341,-0.07187982581853866,-0.033260373235400764
1772660790424519200,9.336519287109375,-0.051305970475822686,-0.03451367949843406,-0.03654450947260484
1772660790434557000,9.346556884765626,-0.06874328135848044,0.004044891476631164,-0.03829617544552311
1772660790444595200,9.35659521484375,-0.16768763971328735,0.0681353785932064,-0.026901323064882306
1772660790454633000,9.366633056640625,0.034222587597370145,0.07877426150739192,-0.01772365354336798
1772660790464672000,9.376672119140625,-0.012521774051338433,0.058062897390127176,-0.05533853219384327
1772660790474710000,9.3867099609375,-0.15030293580070136,0.05967033258676529,-0.052018246931023894
1772660790484748000,9.396748046875,-0.08623933669105172,0.015150222858786581,-0.013169826163910329
1772660790494786000,9.4067861328125,-0.07715352843776345,0.003221300134062767,-0.058947023280896245
1772660790504823800,9.41682373046875,-0.09018018327131867,0.012824410259723662,-0.04813771570324898
1772660790514863000,9.426863037109374,-0.07696180525794624,-0.017110709276795387,-0.03677325846087187
1772660790524900900,9.43690087890625,-0.03734159640073776,-0.054010407128930085,-0.020236513147130607
1772660790534939100,9.446939208984375,-0.009345335972309111,-0.014507833302021026,0.013965351322619243
1772660790544977000,9.456976806640625,0.002168283949792385,0.022778818041086196,0.009834772590221837
1772660790555016000,9.467015869140624,-0.012134820560365914,0.05762976666986942,-0.024390554953506213
1772660790565054000,9.477053955078125,-0.02377148234024644,0.06588204670846462,-0.03077202701838687
1772660790575092000,9.487092041015625,-0.020272388178110123,0.03163958536684513,-0.03602113405247219
1772660790585130000,9.4971298828125,-0.07426832839027046,0.028494857600331304,-0.06873360021468251
1772660790595169000,9.5071689453125,-0.12326631418466567,-0.005230301868915557,-0.05597120407419279
1772660790605207000,9.51720703125,-0.08452288816198707,-0.04017360495626926,-0.020156908572278916
1772660790615245000,9.5272451171875,-0.03865677065253258,-0.06454349158108234,-0.01780782469548285
1772660790625283000,9.537282958984376,-0.03467398462668061,-0.050068391504883764,-0.03965702460310422
1772660790635320800,9.54732080078125,-0.06616787791252136,0.013127192598581314,-0.014621267081238329
1772660790645359900,9.55735986328125,-0.07453954654708504,0.04997779061198234,0.03204869589069858
1772660790655398100,9.567398193359375,-0.03837868436351418,0.05631985311508178,0.0066045676304958756
1772660790665436000,9.577435791015626,-0.037095074293762444,0.074971362093091,-0.029328440613951533
1772660790675474000,9.587473876953124,-0.03864157308340072,0.06121171680986881,-0.05124603871582076
1772660790685513000,9.597512939453125,-0.027260055108368396,0.04690612808167934,-0.0672533167953603
1772660790695551000,9.607551025390626,-0.08654796424880623,0.009440613040328026,-0.06594380509937181
1772660790705589000,9.617589111328124,-0.10852248016968369,0.0032779987573623654,-0.023256920414231715
1772660790715627000,9.627626953125,-0.08142404536381363,-0.019605448701977727,-0.000038888971973210574
1772660790725665000,9.6376650390625,-0.09394655006751418,-0.006255553263425827,-0.008913429094757884
1772660790735704000,9.6477041015625,-0.09175707719922065,0.04448854554593563,-0.008773399569559841
1772660790745742000,9.6577421875,-0.07664835539460181,0.041542555221915245,-0.004515632527228444
1772660790755780000,9.667780029296875,-0.03816445709094405,0.04852057754099369,0.00013323445823043583
1772660790765818000,9.677818115234375,-0.04857961425185203,0.06627952159345149,-0.017769849038962275
1772660790775857000,9.68785693359375,-0.05456044222712517,0.02778524802625179,-0.06842939310371875
1772660790785895200,9.697895263671874,-0.04318097007870674,0.0009381576329469681,-0.08958545051487163
1772660790795933000,9.707932861328125,-0.07157821252346039,-0.002815641942620277,-0.0935757987926714
1772660790805971000,9.717970947265625,-0.06617255408763885,-0.029634675285220145,-0.03770677645131945
1772660790816010000,9.728010009765624,-0.05796016766801476,-0.039458150163292884,-0.031578210568428036
1772660790826048300,9.73804833984375,-0.01799406798258424,-0.028516484910249707,-0.0439030372755602
1772660790836086000,9.7480859375,-0.0039047523535788056,-0.012522212442755698,-0.0029366562400944527
1772660790846124000,9.7581240234375,-0.011295154865831136,-0.0035690906584262844,0.015338384108338505
1772660790856162000,9.768162109375,-0.0135645611025393,0.022593524602055548,0.014398107583541422
1772660790866200800,9.778200927734375,0.008510492583364247,0.0610422054618597,-0.015162351687997578
1772660790876239000,9.788239013671875,-0.02048179314509034,0.06434475413858891,0.017509207075089215
1772660790886276900,9.79827685546875,-0.06606295623332262,0.02050736597776413,0.007389324800018221
1772660790896315100,9.808315185546874,-0.09615034372210501,-0.00017184943556785583,-0.007295673433504998
1772660790906354000,9.81835400390625,-0.09619958969131112,0.006022913551330566,0.03331997620183974
1772660790916392200,9.82839208984375,-0.11667889861837029,-0.012997428739070891,0.03094142876854166
1772660790926430000,9.838429931640626,-0.09943550287261604,-0.024912907460331916,-0.04070372977759689
1772660790936468200,9.84846826171875,-0.056128276065737004,-0.0036468320697546,-0.014982428543828427
1772660790946507000,9.858507080078125,0.004027355819940567,0.028836802905797956,-0.015413001980818807
1772660790956545000,9.868544921875,0.033263825567811725,-0.005412088176608086,-0.05418991014799103
1772660790966583000,9.8785830078125,0.019903993257135152,-0.010005261185765266,-0.0330921953279525
1772660790976620800,9.888620849609374,0.004829319852590561,-0.0033639234751462934,-0.011450710753723978
1772660790986659000,9.8986591796875,-0.02702346987351775,0.023366262540221214,0.004370835495367646
1772660790996697900,9.90869775390625,-0.03485270219445229,0.03159633074700832,0.03717729095080867
1772660791006736100,9.918736083984374,-0.027333412605524063,0.03493687334656715,0.04070316352201626
1772660791016774000,9.92877392578125,-0.05603825969472527,0.0129272861123085,0.03117647963343188
1772660791026812200,9.938812255859375,-0.19479659591317175,0.02159048503935337,-0.02799162078592926
1772660791036851000,9.948850830078126,-0.09112944682016969,0.011743044763803482,-0.030552520782500505
1772660791046889000,9.958888916015624,0.01853752720952034,-0.021096564042568204,-0.06382067546555772
1772660791056927000,9.968927001953125,-0.14714520242214202,0.001793313157558441,-0.033145733879785984
1772660791066965000,9.978965087890625,-0.21412088958621023,0.050374680975079536,0.021054697662219405
1772660791077003000,9.9890029296875,0.019987141495943068,0.02766249842941761,0.0647595272182487
1772660791087042000,9.9990419921875,0.013859160134941338,0.025374679753184318,0.014023447318561375
1772660791097080000,10.009080078125,-0.08533318163156509,0.05735913303494453,-0.020810458843875675
1772660791107118000,10.0191181640625,-0.10240005176663398,0.061952890565991396,0.009229582371842116
1772660791117156000,10.029156005859376,-0.016153846943378448,0.06554653114378452,0.027179318022355434
1772660791127195100,10.039195068359374,0.034169980627298355,0.08611001122295855,-0.0024152079155668614
1772660791137233000,10.04923291015625,-0.07832593321800231,0.08463467797338962,-0.07151154049541801
1772660791147271000,10.05927099609375,-0.16739757072553038,0.041811435291171074,-0.07257359850266948
1772660791157309000,10.069308837890626,-0.09941095295324921,-0.01681903285384178,-0.021586137657798824
1772660791167348000,10.079347900390625,0.0016986206114292144,-0.023817513439059256,0.017329356996156273
1772660791177386000,10.089385986328125,0.004232961394637823,-0.03209142078757286,0.018887180897407232
1772660791187424000,10.099424072265625,-0.057901569348573684,-0.0254494985550642,-0.04966101628039032
1772660791197462000,10.1094619140625,-0.13110723694339393,0.006896189254522323,-0.08109048429420218
1772660791207500000,10.1195,-0.13477087401747703,0.038437574943900106,-0.03864181054541841
1772660791217539600,10.12953955078125,-0.10079378561377525,0.0032739071041345594,-0.03159516170322895
1772660791227577600,10.13957763671875,-0.04984437349066138,-0.0018500117808580398,-0.029240141275990752
1772660791237615600,10.14961572265625,-0.06989961178675294,-0.0021972177833318707,-0.014140041169244796
1772660791247653400,10.1596533203125,-0.04419219294786453,0.0024140754044055935,0.04790856485618278
1772660791257692700,10.169692626953125,-0.047410424342006444,-0.01269113926887512,0.03387308003995567
1772660791267730700,10.179730712890626,-0.07861015698686241,-0.027512276303768155,-0.02528574109440669
1772660791277768700,10.189768798828124,-0.09490312013998627,-0.05446165802776813,-0.07572351390095428
1772660791287806500,10.199806396484375,-0.08358896831274032,-0.02843582088947296,-0.06950542483739554
1772660791297845500,10.209845458984375,-0.04640168569087982,-0.01761515166759491,-0.0795959348875098
1772660791307883500,10.219883544921874,-0.04733341358304023,-0.01645779832601547,-0.08150951342387125
1772660791317921500,10.229921630859375,-0.0488521475829184,0.025417934373021124,-0.08779210082469507
1772660791327959600,10.23995947265625,-0.07429156313538551,0.04320727356374263,-0.020206136275175958
1772660791337997600,10.24999755859375,0.04710179678425193,0.0011082535028457642,0.0074338215288706115
1772660791348036600,10.26003662109375,-0.04761880639567971,0.010655249527096749,-0.07841383069716394
1772660791358074600,10.27007470703125,-0.238313227687031,0.07005494847893715,-0.0854325138201937
1772660791368112600,10.280112548828125,-0.17949848901629448,0.041480595901608464,-0.05295231291074305
1772660791378150700,10.290150634765626,-0.07273454295173287,0.005703180077672005,-0.08404447526158765
1772660791388189400,10.300189453125,-0.02519289344549179,-0.021332710886001586,-0.06427311367448418
1772660791398227700,10.310227783203125,-0.022932108906656503,-0.02794949867725372,-0.0548469310183078
1772660791408265500,10.320265380859375,-0.007446808874607086,-0.006940028396248817,-0.003001519903540611
1772660791418303500,10.330303466796876,0.021376111636310816,-0.006064999127388,0.028244061177037656
1772660791428341500,10.340341552734374,0.0068096800148487084,0.026147417691349983,0.005012384801916778
1772660791438380800,10.350380859375,-0.03618658114671707,0.017360884645581245,-0.022141999708581713
1772660791448418600,10.36041845703125,-0.04178746989369392,0.028215456137061116,-0.04498880495196208
1772660791458456600,10.37045654296875,-0.031046149518340824,0.041185996869206425,-0.0375224511266686
1772660791468494600,10.38049462890625,-0.05590118931159377,0.036816695743799206,-0.05014755768831819
1772660791478533600,10.39053369140625,-0.07942951054573058,0.026713234880566594,-0.040539570458140224
1772660791488571600,10.400571533203125,-0.1321054542005062,0.029544074392318723,-0.008712591026723384
1772660791498609700,10.410609619140626,-0.10327318133935331,0.007764788782596587,0.02961743188947439
1772660791508647700,10.420647705078125,-0.0542974073767662,-0.03856032454073429,0.021492011367250232
1772660791518685700,10.430685791015625,-0.041194764697551726,-0.03353343628942966,-0.02721999709261581
1772660791528724700,10.440724853515626,-0.06015884675607085,0.0021644845575094222,-0.004170746346004307
1772660791538762500,10.450762451171874,-0.07637479915022849,0.05428980859220028,-0.02530515818092972
1772660791548800800,10.46080078125,-0.08103124665394425,0.05665595320165157,-0.020650464242883027
1772660791558838500,10.470838623046875,-0.08568769415766,0.05821195047199726,-0.0006428827471099794
1772660791568877800,10.4808779296875,-0.07599836705327033,0.06761106245815754,-0.024058573919627815
1772660791578915600,10.49091552734375,-0.08812734239473938,0.0532604655444622,-0.05330614958340302
1772660791588953600,10.50095361328125,-0.060270198176056146,0.030942250752449035,-0.051577152100019154
1772660791598991600,10.51099169921875,-0.04048267090544104,0.027951252242922782,-0.010126987869292498
1772660791609030400,10.521030517578126,-0.03754954006299376,0.019751579174399375,-0.008282401182223112
1772660791619068700,10.531068603515624,-0.06074702190756798,0.016356091517210007,0.0025254633570089935
1772660791629106400,10.5411064453125,-0.08205036056861281,-0.018498364242911337,-0.028751864568702875
1772660791639144700,10.551144775390625,-0.06431596643552184,0.0067693480044603346,-0.04350380882490426
1772660791649183500,10.56118359375,-0.05253463548794388,0.03236789964139462,-0.01956392938150093
1772660791659221800,10.5712216796875,-0.040473610816150904,0.025363573837280273,-0.014665526348073034
1772660791669259500,10.581259521484375,-0.030599720925092694,0.017193126863241193,-0.020054489377420395
1772660791679297800,10.5912978515625,-0.029603549494594334,0.0030716625303030013,-0.008154573551472276
1772660791689335600,10.60133544921875,-0.014931027150154113,-0.008644494226574897,-0.0048279498794116076
1772660791699374600,10.61137451171875,-0.0656733723938465,0.02215630222856998,-0.0003968538304790854
1772660791709412600,10.62141259765625,-0.08747384692206979,0.02532499539256096,0.019549188470095395
1772660791719450600,10.63145068359375,-0.1087466443143785,0.042291327762603755,-0.019931484052259474
1772660791729488600,10.641488525390624,-0.10233224722743034,0.049830491095781325,-0.016075868070032445
1772660791739527700,10.651527587890625,-0.08278802719339728,0.05287117396593093,-0.004680230238102376
1772660791749565700,10.661565673828125,-0.058683659636974334,0.06300152283608913,0.009615385085344314
1772660791759603500,10.671603515625,-0.04889759415984153,0.04520049320757389,0.016150796469766644
1772660791769641700,10.681641845703124,-0.015799772808700797,0.04242752136290073,-0.011242949754558503
1772660791779679500,10.691679443359375,-0.003583265314251184,0.04077800059020519,-0.03723735057497397
1772660791789718500,10.701718505859375,-0.0045019875943660735,0.030368834778666493,-0.03420857733832672
1772660791799756500,10.711756591796876,-0.022309008572250603,0.014793664506077766,-0.009871679667662829
1772660791809794600,10.721794677734374,-0.05207856228351593,0.002232289096713066,-0.017898133327439426
1772660791819832600,10.73183251953125,-0.08348609246015548,0.013823942691087722,-0.028293909934442488
1772660791829871600,10.74187158203125,-0.08186798973903059,0.019970774883031842,-0.039578579938877374
1772660791839909600,10.75190966796875,-0.06889993322491646,0.03996376159787178,-0.007571987890545279
1772660791849947600,10.76194775390625,-0.06813523246273398,0.035195816543698306,0.004136478750221431
1772660791859985700,10.771985595703125,-0.06631853842958807,0.019461656317114828,-0.017218754494842142
1772660791870024700,10.782024658203126,-0.058061728346347805,0.007895137163996696,-0.04260289619611576
1772660791880062500,10.7920625,-0.08626593243703246,0.015910101315379142,-0.06366504651242867
1772660791890100700,10.802100830078125,-0.09421426109299064,0.0052080900371074676,-0.07302402741760015
1772660791900138500,10.812138427734375,-0.046042789250612254,0.00833762023448944,-0.05592780332388356
1772660791910176500,10.822176513671875,-0.005800941363722086,0.0004418985486030578,-0.008425554246269167
1772660791920215600,10.832215576171874,0.02206219420433044,-0.024443536382913588,-0.01378625929551199
1772660791930253600,10.842253662109375,0.05314005403518676,-0.01454115104973316,-0.021979411291703582
1772660791940291600,10.85229150390625,0.061156041099876164,-0.018363924208283422,-0.01809387509524822
1772660791950329600,10.86232958984375,0.02253682597875595,-0.00879471635222435,-0.011513729519955813
1772660791960368600,10.87236865234375,-0.16012860263586043,0.03545475974082946,-0.056024870490189636
1772660791970406700,10.88240673828125,-0.046910219734907145,0.04311667267084122,-0.010816431438177824
1772660791980444700,10.892444580078125,0.05560659027919173,-0.018153496327996253,0.021328454835992307
1772660791990482700,10.902482666015626,-0.09360884254574775,-0.010606149688363075,0.023913831686694174
1772660792000520700,10.912520751953124,-0.23344284517168998,0.06110533382594585,-0.016077895630337298
1772660792010559500,10.9225595703125,-0.05413374124765396,0.06361877795159816,0.07643372626323253
1772660792020597800,10.93259765625,-0.0024867022491991517,0.07979016055166721,0.02466545377159491
1772660792030635500,10.942635498046876,-0.020570640472322703,0.09775777891874313,-0.011347286911867559
1772660792040673500,10.952673583984375,0.010891980892419814,0.08902794449627399,-0.0008561053726822138
1772660792050712600,10.962712646484375,0.0888274534881115,0.040997780820727345,0.009072912239097059
1772660792060750600,10.97275048828125,0.0692472853578627,0.00013034838140010832,-0.038492118142731485
1772660792070788600,10.98278857421875,-0.09661211601495742,-0.004240121787786483,-0.09274652662798762
1772660792080826600,10.99282666015625,-0.13348624103441833,-0.015966215416789054,-0.05589644007124006
1772660792090865700,11.00286572265625,-0.008081453516334295,-0.02582242352068424,0.002191062037181109
1772660792100903400,11.0129033203125,0.036796968130022284,-0.012848375657200813,0.020200528518296776
1772660792110941700,11.022941650390624,-0.01464578046798706,-0.012138766083121299,-0.018921612889971583
1772660792120979500,11.0329794921875,-0.07539061041846871,0.02140226899087429,-0.045893042048998176
1772660792131017700,11.043017822265625,-0.12402151646614074,0.04835924949944019,-0.05795017599696293
1772660792141056500,11.053056396484376,-0.11612360282316803,0.0880734202504158,-0.05999359145807102
1772660792151094800,11.0630947265625,-0.06372121541276574,0.07685527614355087,-0.056438200531434266
1772660792161132500,11.073132568359375,-0.031029929035902022,0.0473830979436636,-0.03600417378451675
1772660792171170800,11.0831708984375,-0.011054477977752684,-0.024132570737600324,0.010489135712571441
1772660792181209600,11.093209716796874,-0.0038800563037395476,-0.03336977016031742,0.013202066199388355
1772660792191247600,11.10324755859375,-0.010392799198627472,-0.041436172237992286,0.027149324742890894
1772660792201285600,11.11328564453125,-0.05256956067085266,-0.03251110750436783,0.01303204339472577
1772660792211323400,11.123323486328125,-0.07019055755734444,-0.03084872725009918,-0.04027096438352018
1772660792221363000,11.133363037109374,-0.05299494647607207,-0.03383563410639763,-0.05420724487528204
1772660792231401000,11.14340087890625,-0.0213712893307209,-0.030623101800680157,-0.024670203011948614
1772660792241439000,11.15343896484375,-0.033280338311195375,-0.016041034218668936,-0.02558302527423948
1772660792251477000,11.16347705078125,-0.12162030054330825,0.007137012273073196,-0.017610037101060152
1772660792261515000,11.173514892578124,0.06363806717395783,0.034195699590444564,0.02699654533397406
1772660792271554000,11.183553955078125,0.052464200600236655,0.051835985699296,-0.053779886308684945
1772660792281591800,11.193591796875,-0.0743441701054573,0.10172551350593566,-0.01956392938150093
1772660792291629800,11.2036298828125,-0.03956409475579858,0.08124562005698681,0.000934869697317481
1772660792301667800,11.213667724609374,-0.06733224551677704,0.054264674150943756,-0.04778548646578565
1772660792311707000,11.223706787109375,-0.05773775708898902,0.04222235417962074,-0.005476312519237398
1772660792321745000,11.233744873046875,-0.08571648186072707,0.01949438954293728,0.03504904675045982
1772660792331783000,11.243782958984376,-0.06866027925014495,-0.045105800661444664,0.04054057510513812
1772660792341821000,11.253821044921875,-0.011368950754404068,-0.06195639769732952,0.0431891351188533
1772660792351859700,11.263859619140625,0.01341010119318962,-0.05743745896816253,0.045308483626693485
1772660792361898000,11.27389794921875,-0.004581482571363449,-0.021578794601559637,0.008982420944049954
1772660792371935700,11.283935791015624,-0.054279871720075604,-0.0014309095859527587,-0.04070478922352194
1772660792381974000,11.29397412109375,-0.03860533272624016,0.013514730611443518,-0.06677393578058108
1772660792392011800,11.30401171875,0.00421674091219902,0.032095512440800666,-0.10030192870991304
1772660792402051000,11.314051025390626,-0.03814706756472588,0.035277065086364745,-0.05607000653985887
1772660792412088800,11.3240888671875,-0.047787148699909444,0.03212766114473343,-0.025529011798370627
1772660792422127000,11.334127197265625,-0.04566533424034715,0.011252630898356437,-0.026364110915642232
1772660792432164900,11.344164794921875,-0.0313140066742897,-0.013411270236968994,-0.004679572650976478
1772660792442204000,11.354203857421876,0.008105126652866602,-0.00774900669157505,-0.029336094197444616
1772660792452242000,11.364241943359374,-0.007636047836393117,0.023322423398494718,-0.017495269881282
1772660792462279700,11.37427978515625,-0.06140986973047256,0.013633388555049895,-0.011060816386993974
1772660792472318000,11.38431787109375,-0.0583493131160736,0.00030804303586483,-0.0544739512537606
1772660792482355700,11.394355712890626,-0.02474997198358178,0.0066524436265230176,-0.030762364140897988
1772660792492395000,11.40439501953125,-0.012050357147306203,0.004086392530798912,-0.033091190680954605
1772660792502432800,11.414432861328125,-0.025216274321079254,-0.0029079964011907576,-0.06167471294542774
1772660792512471000,11.424470947265625,-0.05468889091238379,0.02602759070396423,-0.05552192593673244
1772660792522508800,11.4345087890625,-0.06312471082434058,0.025460604470968245,-0.013725743013620376
1772660792532547800,11.4445478515625,-0.07311652800664305,0.04183013999164104,0.006730659961886704
1772660792542585900,11.4545859375,-0.0867313579916954,0.03068623016476631,0.005531330642104149
1772660792552623900,11.464623779296875,-0.05898395775780081,0.03689852880835533,0.008762640713527798
1772660792562662000,11.474661865234374,-0.04122866696715355,0.04545183762013912,0.022995931390486658
1772660792572701000,11.484700927734375,-0.008687164324522018,0.03544599191248417,-0.018525325315073133
1772660792582739000,11.494739013671875,-0.028094313975423574,0.05451660308539867,-0.034196101449243725
1772660792592777000,11.50477685546875,-0.03896671338453889,0.05254910240471363,-0.03240244123181328
1772660792602815000,11.51481494140625,-0.030500498334318397,0.047179099804162974,-0.0630668066246435
1772660792612852700,11.524852783203125,-0.0462860964871943,0.03027005057930946,-0.052793523886147886
1772660792622891800,11.534891845703125,-0.04894786304235458,0.005232055434584618,-0.062499948255810886
1772660792632929800,11.5449296875,-0.06206351133361458,-0.023586627292633056,-0.07994747000522912
1772660792642968000,11.554968017578124,-0.07163783375620841,-0.0280418531358242,-0.059125046728923915
1772660792653005800,11.565005859375,-0.04565115958452225,0.012663082218170165,-0.014884338464215397
1772660792663044900,11.575044921875,-0.028419308146089315,0.027338088780641555,-0.017200963109824805
1772660792673083000,11.585082763671876,-0.006374649598449468,0.029599603971838948,-0.03791925015822053
1772660792683121000,11.595120849609375,-0.007187135025113821,0.01822889965176582,-0.061208191412221634
1772660792693159000,11.605158935546875,-0.032628011882305144,0.019584405913949013,-0.06405623778710141
1772660792703198000,11.615197998046876,-0.028673136776685714,0.0065676879525184625,-0.06789320386778563
1772660792713236000,11.625236083984374,-0.017120646148920057,-0.010322072049975395,-0.029694881039857863
1772660792723274000,11.63527392578125,-0.025689590921252965,-0.02092120747566223,-0.04009359852261841
1772660792733312000,11.64531201171875,-0.023973580783605574,-0.018964228188991544,-0.0555597919953987
1772660792743349800,11.655349853515625,0.01603694256544113,0.013071078497171401,-0.01759564324952662
1772660792753388800,11.665388916015624,0.0019805062927305698,0.020995441755652426,0.0271706415255554
1772660792763426800,11.6754267578125,0.011906857023388147,0.02390051554739475,-0.0015398863857612013
1772660792773464800,11.68546484375,0.010337854140996932,0.05677753375470638,-0.027565942719765008
1772660792783502800,11.6955029296875,-0.048234746336936946,0.05072890124022961,-0.01624925187556073
1772660792793542000,11.7055419921875,-0.08599237619265913,0.05613748228549957,-0.015237955941166727
1772660792803580000,11.715579833984375,-0.10913023680448532,0.031124621582031248,0.002765884516760707
1772660792813618000,11.725617919921875,-0.12579027970433235,-0.008288520395755767,-0.025197259093355386
1772660792823656000,11.735656005859376,-0.09554229482635855,-0.008639818051457405,-0.009580752163380384
1772660792833695000,11.745695068359375,-0.030871961995214223,0.011082535028457642,0.014586853354983031
1772660792843732700,11.755732666015625,-0.028302403768151997,0.026615035203099248,-0.01558355450844392
1772660792853771000,11.76577099609375,-0.040759880411624906,0.05575871210098266,-0.02730228681489825
1772660792863808800,11.775808837890626,-0.029473931765556335,0.038679567006230355,0.01490494286082685
1772660792873847000,11.785846923828124,-0.06310045316591859,-0.012197802793979645,-0.0014071633841842412
1772660792883885800,11.7958857421875,-0.04968918292894959,-0.028614684587717053,-0.010888729489408432
1772660792893924000,11.805924072265626,-0.021076836428791282,-0.03782207339406013,-0.0060192968221381305
1772660792903961900,11.8159619140625,0.018227584477514026,-0.04589432069063187,0.015647376992274076
1772660792914000000,11.825999755859375,-0.052135991559177634,-0.0027022446960210797,-0.013258034170325844
1772660792924039000,11.836038818359375,-0.1643314611531794,0.05027355868816375,-0.018803703865036367
1772660792934076700,11.84607666015625,-0.018197335469722745,0.010713701716065406,0.036745128344930704
1772660792944115000,11.856114990234374,-0.028610154543071982,0.02642155845761299,0.020077523193135858
1772660792954152700,11.866152587890625,-0.2422211949110031,0.038569676890969275,0.04922065210174769
1772660792964191000,11.87619091796875,-0.10996025788784027,0.03139934687018394,0.023038674553669987
1772660792974229800,11.886229736328126,0.038539866274595255,0.022805706048011777,0.030168069775868205
1772660792984268000,11.89626806640625,-0.026426380763202903,0.03741699972450733,0.04232702013049274
1772660792994305800,11.906305908203125,-0.09881006445065141,0.06238719033002853,0.04579502503462136
1772660793004344000,11.916343994140625,-0.06082666301503777,0.06583645400106906,0.057567971746344114
1772660793014382800,11.9263828125,0.06769245713129639,0.0010860416710376738,0.059055634754523634
1772660793024420900,11.9364208984375,0.04214402824640274,-0.02746902168393135,-0.005544354520458728
1772660793034459000,11.946458984375,-0.14099120983704924,-0.013765490502119063,-0.06989274365454912
1772660793044497000,11.956496826171875,-0.15808642928376793,0.034952070915699004,-0.030513102087564765
1772660793054536000,11.966535888671874,-0.043791357062011954,-0.011985036826133727,0.07448242779867723
1772660793064574000,11.976573974609375,-0.019012305114418267,-0.015023381608724594,0.03577288577929139
1772660793074612000,11.986612060546875,-0.04788870937824249,-0.004300912064313888,-0.026841373038571325
1772660793084649700,11.996649658203125,-0.1035984677709639,0.03833645265698433,-0.05147741805259138
1772660793094688000,12.00668798828125,-0.09093290133476256,0.05006371532976627,-0.07024513728879392
1772660793104726800,12.016726806640625,-0.050554129195213314,0.05532032068371773,-0.04123558989828452
1772660793114765000,12.02676513671875,-0.05074687528833747,0.06083060853779316,0.012357578199263662
1772660793124802800,12.036802734375,-0.06929960006698965,0.034902386555075646,0.023658176425192502
1772660793134841000,12.046841064453124,-0.06406228393539785,0.020752865171432495,0.051508836104162035
1772660793144879900,12.0568798828125,-0.06345555021390319,-0.013633973076939582,0.04929086779374629
1772660793154918000,12.06691796875,-0.06531316077932715,-0.038918636459112164,0.018263897899910807
1772660793164956000,12.076955810546876,-0.09352233330607414,-0.03850830209255218,-0.013053634172026067
1772660793174994000,12.086993896484374,-0.07747370030283927,-0.03849368904531002,-0.030460641247965395
1772660793185033000,12.097032958984375,-0.05331672577634453,-0.038003275179862975,0.0027271964741870758
1772660793195071000,12.107071044921875,-0.04281520550623536,-0.017072130832076073,-0.01874660338293761
1772660793205109000,12.11710888671875,-0.030154607506096363,-0.003129530197381973,-0.01069591033104807
1772660793215146800,12.127146728515624,-0.05399579408168793,0.029004560688138007,0.016293821669649333
1772660793225184800,12.137184814453125,-0.01746887506470084,0.004315525111556053,0.04810889146756381
1772660793235223800,12.147223876953126,0.05991217851862311,-0.01175882685482502,-0.021413703700341284
1772660793245261600,12.157261474609374,-0.13442132992744446,0.07283961076140404,-0.07673986960295587
